timestamp_us,qw,qx,qy,qz,avx,avy,avz,ax,ay,az
17918417,1,-0.000303416,-0.000258906,2.9249e-05,-0.0151716,-0.00795228,0.000388852,0.018183,0.103429,-0.00212955
17926369,0.999999,-0.00105904,-0.000143395,2.73914e-05,0.00868191,0.00416662,0.000524806,-0.0205105,-0.15754,0.00158722
17934324,0.999998,-0.00184891,-0.00035274,3.21681e-05,-0.00226003,0.00865637,-0.00122993,0.00641469,-0.0147922,-0.0247295
17942427,0.999999,-0.00109253,-0.000579512,2.95442e-05,-0.00125485,-0.00503843,0.000473697,0.064567,0.176485,0.0237649
17950397,0.999999,-0.00145891,0.000107483,2.82464e-05,0.00869711,0.00141415,0.000581436,0.00733166,-0.00517068,0.00134651
17958433,1,-0.000728683,1.48823e-05,2.65555e-05,-0.0151838,-0.00795411,0.000387087,0.0239965,0.111583,-0.00223464
17966465,0.999999,-0.0014874,0.000108697,2.45193e-05,0.0086692,0.00416543,0.000525638,-0.0151653,-0.149596,0.00173117
17974488,0.999998,-0.00216858,-0.000361463,2.86639e-05,-0.00226723,0.00865563,-0.00123508,0.00662969,-0.00910947,-0.0247092
17982584,0.999999,-0.0014101,-0.000582818,2.59592e-05,-0.00125816,-0.005039,0.000476848,0.064895,0.182147,0.0236406
17990343,0.999999,-0.00143455,0.000210439,2.48354e-05,0.00869623,0.00141391,0.000583245,0.00974568,-0.00618395,0.00134523
17998320,1,-0.000706906,0.000102776,2.32144e-05,-0.0151826,-0.00795467,0.000383917,0.026122,0.110661,-0.00223681
18006206,0.999999,-0.00146713,0.000185606,2.10945e-05,0.00866975,0.00416549,0.00052721,-0.0132527,-0.150452,0.00173055
18066729,0.999998,-0.00212449,-0.00031976,2.51476e-05,-0.00226579,0.00865685,-0.00123415,0.00785277,-0.0104176,-0.0246986
18074422,0.999999,-0.00136787,-0.000546741,2.24752e-05,-0.00125787,-0.00503956,0.00047629,0.0660181,0.180867,0.0236401
18082404,0.999999,-0.00150009,0.000230982,2.13519e-05,0.00869588,0.0014137,0.000583378,0.0105567,-0.00534471,0.001346
18090456,0.999998,-0.00163202,0.000997406,2.72626e-05,-0.00796735,0.00687233,-0.00121186,0.0121015,-0.0042609,-0.0249142
18098389,0.999999,-0.000954797,0.000629035,2.53552e-05,-0.00535566,-0.00533365,0.000486127,0.0710708,0.111971,0.0234828
18106388,0.999998,-0.00176789,0.000826984,3.01231e-05,-0.0114941,0.0081315,-0.00129137,-0.0326932,-0.128653,-0.0241871
18114268,0.999999,-0.00117144,0.000305518,2.78823e-05,-0.000116383,-0.00277646,0.000448112,0.0763675,0.0737382,0.0237282
18122248,0.999999,-0.0012547,-0.000493687,2.46657e-05,0.0129424,0.00239709,0.000550799,0.0160646,-0.0087976,0.00149478
18130298,1,-0.000493983,-0.000349037,2.9269e-05,-0.00536437,0.00692327,-0.00118893,-0.00162723,0.0223364,-0.0248552
18138178,1,0.000243925,-0.000584217,2.69348e-05,-0.00497544,-0.0054954,0.000478436,0.0503322,0.126561,0.0239453
18146332,1,-0.000538432,-0.000293949,3.22362e-05,-0.0121719,0.00801155,-0.00124984,-0.0558096,-0.142041,-0.0245922
18154179,0.999999,-0.000335979,0.00128555,3.46945e-05,-0.018918,-0.207119,-0.000695975,-0.214345,0.0814304,-4.02781
18162256,1,-0.000530792,0.000393687,3.3108e-05,-0.0124987,0.0262087,0.000280633,0.702184,-0.135414,4.05252
18170362,1,-0.000961791,-0.000147963,3.17345e-05,-0.000522993,-0.0337448,0.000237968,0.130249,-0.0835289,0.000229553
18178198,0.999999,-0.000830444,0.000708148,3.19224e-05,0.00408059,-0.0158831,0.000149316,-0.329927,0.042601,-0.00175749
18238377,0.999999,-0.000464582,0.0014197,3.24457e-05,0.00287166,0.00141003,8.91287e-05,-0.199819,0.0950971,-0.00116169
18246175,0.999999,0.000322297,0.00155559,3.34362e-05,0.000371589,0.00546463,5.96565e-05,-0.0093493,0.0642216,-0.000790693
18254395,1,0.000586038,0.000782776,3.39616e-05,-0.00103366,0.00443532,3.95707e-05,0.0661406,0.0158575,-0.000624978
18262322,1,0.000455819,-1.95079e-05,3.42329e-05,-0.00112282,0.00271724,2.63996e-05,0.0709779,-0.0163981,-0.000417734
18270365,1,0.000116274,-0.000750303,3.45045e-05,-0.000538376,0.00136808,1.74371e-05,0.0463763,-0.0252013,-0.000234774
18278369,0.999999,-0.000416251,-0.0013499,3.49282e-05,8.01259e-05,0.00066748,1.1032e-05,0.0153406,-0.0152178,-0.000137863
18286488,0.999999,-0.000817513,-0.00065991,3.57278e-05,0.000372544,0.000641079,7.91303e-06,0.0126457,-0.00147055,-0.000139814
18294522,1,-1.91653e-05,-0.000584623,3.52405e-05,0.000388686,0.000919725,7.77966e-06,0.00554131,-0.0117752,-0.000131823
18355392,1,-0.00063011,-7.39137e-05,3.5582e-05,0.000301784,0.0012226,6.08859e-06,0.0127195,0.00325862,-0.000112783
18363269,1,2.50111e-05,-0.000541225,3.52211e-05,0.000216592,0.00145124,7.20262e-06,0.00347159,-0.00803492,-9.01797e-05
18371322,1,-0.00062043,-7.40053e-05,3.55345e-05,0.000158071,0.00159619,5.18356e-06,0.0133989,0.00560538,-8.38739e-05
18379153,1,2.4278e-05,-0.000554951,3.51728e-05,0.00011765,0.00167652,7.0213e-06,0.00467988,-0.00627444,-6.73451e-05
18387148,0.999999,0.000820227,-0.000645142,3.47097e-05,8.52677e-05,0.00171638,9.69028e-06,0.00329705,-0.0213221,-8.23427e-05
18395045,1,2.525e-05,-0.000564531,3.51221e-05,5.78298e-05,0.00173541,6.94319e-06,0.00496646,-0.00539665,-5.80221e-05
18403040,1,0.000813166,-0.000429664,3.46505e-05,4.62044e-05,0.00174117,9.67687e-06,0.00755707,-0.0206946,-7.84796e-05
18411146,1,2.35024e-05,-0.000565136,3.50655e-05,2.14121e-05,0.00175319,6.90259e-06,0.00477371,-0.00515756,-5.50396e-05
18419072,1,0.00073499,-0.00020475,3.46317e-05,1.27788e-05,0.00175961,9.40555e-06,0.0117039,-0.0191243,-7.72201e-05
18427160,1,1.98352e-05,-0.000570841,3.50139e-05,8.7163e-06,0.00176517,6.87052e-06,0.00445566,-0.00506399,-5.34513e-05
18435255,1,0.000693303,-0.000144529,3.45979e-05,7.32775e-06,0.00176953,9.25184e-06,0.0127844,-0.0182033,-7.60347e-05
18443291,1,1.80344e-05,-0.000581454,3.49657e-05,7.1718e-06,0.00177261,6.84732e-06,0.0042042,-0.00485858,-5.26782e-05
18451335,1,0.000676173,-0.00013331,3.45519e-05,7.35631e-06,0.00177452,9.18143e-06,0.0129899,-0.0176483,-7.48967e-05
18459404,1,1.60944e-05,-0.000593816,3.49189e-05,7.51649e-06,0.00177557,6.82379e-06,0.0039537,-0.00457551,-5.2171e-05
18467411,1,0.000663212,-0.000130341,3.45043e-05,7.5211e-06,0.00177605,9.12148e-06,0.0130347,-0.0171405,-7.38821e-05
18475494,1,1.35884e-05,-0.000606264,3.48725e-05,7.45071e-06,0.00177625,6.79885e-06,0.00368736,-0.00427384,-5.18274e-05
18545257,1,0.0006518,-0.000129169,3.44562e-05,7.33337e-06,0.00177629,9.06545e-06,0.0130281,-0.0166683,-7.30014e-05
18553094,1,1.20247e-05,-0.000617771,3.48254e-05,7.23764e-06,0.00177632,6.77778e-06,0.00342755,-0.00399848,-5.1584e-05
18561116,1,0.000642469,-0.000130201,3.44073e-05,7.16432e-06,0.00177633,9.01694e-06,0.0129719,-0.0162429,-7.21961e-05
18569178,1,1.09602e-05,-0.000628963,3.47783e-05,7.13889e-06,0.00177637,6.75862e-06,0.00317184,-0.00373598,-5.13857e-05
18577315,1,0.000634134,-0.000134203,3.43582e-05,7.11216e-06,0.00177638,8.97219e-06,0.0128577,-0.0158376,-7.13754e-05
18585344,1,9.1676e-06,-0.000640859,3.47319e-05,7.11842e-06,0.0017764,6.737e-06,0.00290334,-0.00345854,-5.11966e-05
18593284,1,0.000628037,-0.000139232,3.43081e-05,7.11343e-06,0.0017764,8.92811e-06,0.0127242,-0.0154753,-7.06213e-05
18601356,1,8.17802e-06,-0.000652182,3.46852e-05,7.11598e-06,0.00177642,6.71828e-06,0.00264668,-0.003196,-5.10318e-05
18609352,1,0.000622017,-0.000146154,3.42582e-05,7.10695e-06,0.00177641,8.8988e-06,0.012554,-0.015114,-6.98363e-05
18617400,1,6.19681e-06,-0.000664334,3.46392e-05,7.11314e-06,0.00177641,6.69595e-06,0.00237376,-0.00291394,-5.08736e-05
18625368,1,0.000616966,-0.000153822,3.42079e-05,7.09513e-06,0.00177639,8.8657e-06,0.0123689,-0.0147717,-6.90778e-05
18633366,1,4.32582e-06,-0.000676374,3.45934e-05,7.09891e-06,0.0017764,6.67408e-06,0.0021029,-0.0026341,-5.07324e-05
18705572,1,0.000612546,-0.00016217,3.41575e-05,7.08766e-06,0.00177638,8.83474e-06,0.0121704,-0.0144419,-6.83391e-05
18713437,1,2.47202e-06,-0.000688375,3.45478e-05,7.08559e-06,0.00177638,6.65231e-06,0.00183276,-0.00235456,-5.06059e-05
18721384,1,0.000608027,-0.000171577,3.41074e-05,7.07373e-06,0.00177637,8.80349e-06,0.0119511,-0.0141102,-6.75866e-05
18729436,1,1.24838e-07,-0.000700747,3.45026e-05,7.0791e-06,0.00177637,6.62869e-06,0.00155536,-0.00206547,-5.04937e-05
18737500,1,0.000604139,-0.00018129,3.40571e-05,7.06132e-06,0.00177635,8.77449e-06,0.0117259,-0.0137908,-6.68591e-05
18745366,1,-1.7626e-06,-0.00071264,3.44572e-05,7.06574e-06,0.00177636,6.60678e-06,0.00128735,-0.00178537,-5.04001e-05
18753414,1,0.000600087,-0.000191819,3.40071e-05,7.05506e-06,0.00177634,8.74483e-06,0.0114847,-0.0134682,-6.61263e-05
18761403,1,-3.68747e-06,-0.000724478,3.4412e-05,7.05332e-06,0.00177634,6.58476e-06,0.00102044,-0.00150444,-5.03204e-05
18769431,1,0.000596496,-0.000202502,3.39571e-05,7.04161e-06,0.00177633,8.71685e-06,0.0112404,-0.0131547,-6.54179e-05
18777522,1,-5.66424e-06,-0.000736243,3.43669e-05,7.04693e-06,0.00177633,6.56247e-06,0.00075495,-0.00122262,-5.02581e-05
18785652,1,0.000593815,-0.000212875,3.39066e-05,7.0291e-06,0.00177631,8.69214e-06,0.0110022,-0.012859,-6.47544e-05
18793504,1,-8.3562e-06,-0.000748489,3.43224e-05,7.03341e-06,0.00177632,6.53771e-06,0.000480023,-0.000926752,-5.02086e-05
18856680,1,0.000590817,-0.000223939,3.38566e-05,7.02269e-06,0.0017763,8.66622e-06,0.0107505,-0.0125571,-6.4085e-05
18864480,1,-1.06477e-05,-0.000760225,3.42778e-05,7.02087e-06,0.0017763,6.51439e-06,0.000215141,-0.000638642,-5.0175e-05
18872276,1,-0.000756263,-0.000621105,4.11809e-05,0.00711734,0.016547,-0.00159267,-0.0610632,-0.250688,-0.0457686
18880303,1,8.72964e-06,-0.000821753,3.97479e-05,-0.00108741,-0.00470556,0.00019134,0.0671688,0.210634,0.0170354
18888392,1,4.22424e-05,-1.13984e-05,3.90977e-05,-0.0136184,-0.00375444,0.000122247,-0.0376537,-0.000128314,-0.000751484
18896394,1,-0.000684501,3.55568e-05,3.76324e-05,0.0173712,0.00863482,0.000371229,-0.0149875,-0.196714,0.00251441
18904287,1,5.7968e-05,-0.00021258,3.64685e-05,-0.00300128,-0.00447615,0.000245687,0.0510981,0.123831,-0.00108022
18912204,1,-0.000695429,5.97527e-05,4.22116e-05,-0.00447705,0.0114431,-0.00141475,-0.0564127,-0.145623,-0.0237852
18920546,1,7.62289e-06,-0.000359918,4.05624e-05,0.0056522,-0.00084384,0.000346339,0.0700965,0.0980761,0.0247805
18928423,1,-0.000687438,2.59412e-05,4.60992e-05,-0.00415848,0.00950399,-0.00133521,-0.0267014,-0.0552253,-0.0239812
18995748,1,4.65728e-05,-0.000296098,4.4355e-05,0.00161126,-0.00265551,0.000379744,0.0618643,0.117658,0.0245565
19003467,1,-0.000706033,-0.000300068,4.25098e-05,0.0119307,0.00246031,0.00052094,0.00481055,-0.014442,0.00172164
19011546,1,3.75199e-05,-0.000334492,4.07692e-05,-0.0136349,-0.00767933,0.000351082,0.0152738,0.112937,-0.00177413
19019524,1,-0.000710248,-0.000184722,3.90143e-05,0.00894441,0.00431467,0.000503346,-0.0281435,-0.160798,0.00161246
19027553,0.999999,-0.00151879,-0.000172123,4.41069e-05,-0.00233418,0.00882757,-0.00124378,0.00295777,-0.0291238,-0.0246947
19035549,1,-0.000766613,-0.000412377,4.17268e-05,-0.00116144,-0.00485384,0.000461142,0.0625875,0.160717,0.0239924
19043567,0.999999,-0.00139733,2.59579e-05,4.00702e-05,0.00899008,0.00157179,0.000574692,0.00217954,-0.0107275,0.00139694
19051571,1,-0.00066234,-4.27087e-05,3.83648e-05,-0.0148491,-0.00783397,0.000385222,0.0203627,0.111823,-0.00217841
19059477,0.999999,-0.00141679,6.92889e-05,3.63912e-05,0.00893051,0.00424053,0.000522785,-0.0179975,-0.145931,0.00170173
19067657,0.999998,-0.00209224,-0.000408085,4.05967e-05,-0.00212918,0.00868997,-0.0012377,0.00367358,-0.00459701,-0.0247896
19075654,0.999999,-0.00132882,-0.000614673,3.79081e-05,-0.0012107,-0.00501739,0.000475376,0.0620185,0.185968,0.0237481
19083843,0.999999,-0.00118556,0.000173048,3.66129e-05,0.00869294,0.00142151,0.000582948,0.00659658,-0.00677452,0.00134153
19144943,1,-0.000455257,8.34273e-05,3.50224e-05,-0.0152079,-0.00794936,0.000381065,0.0231825,0.109141,-0.00216013
19152795,0.999999,-0.00121394,0.000179544,3.28983e-05,0.00865125,0.00416589,0.000528505,-0.0159958,-0.152553,0.00163477
19160789,0.999998,-0.00193866,-0.000214863,3.71985e-05,-0.00228176,0.00865102,-0.00123397,0.00725184,-0.0113498,-0.0247807
19168832,0.999999,-0.00118175,-0.000440662,3.46578e-05,-0.00126209,-0.00503541,0.000474338,0.065418,0.179969,0.0237671
19176967,0.999999,-0.00136424,0.000324893,3.33731e-05,0.00869863,0.00141658,0.0005856,0.00975773,-0.00519851,0.00134034
19185012,1,-0.000636281,0.000218207,3.18598e-05,-0.0151818,-0.00794982,0.000380065,0.0261646,0.111738,-0.00221213
19192859,0.999999,-0.00139633,0.000301441,2.96378e-05,0.00867458,0.00416706,0.000529415,-0.0131846,-0.149363,0.00169506
19200849,0.999998,-0.00203736,-0.000225898,3.36302e-05,-0.00226678,0.00865224,-0.00123513,0.00748358,-0.0096116,-0.0247681
19208855,0.999999,-0.00127995,-0.000450629,3.10566e-05,-0.00125669,-0.00503621,0.0004754,0.0656711,0.181685,0.0237205
19216863,0.999999,-0.00134662,0.000338502,2.98286e-05,0.00869808,0.00141548,0.000585908,0.0104528,-0.0058458,0.00133962
19224904,0.999998,-0.0015247,0.00109806,3.55871e-05,-0.0079707,0.0068682,-0.00121349,0.0118684,-0.00386397,-0.0249689
19232853,0.999999,-0.000846366,0.000731666,3.37979e-05,-0.00535575,-0.00533027,0.000484549,0.0708563,0.112358,0.0235569
19240965,0.999998,-0.00165908,0.000931161,3.84554e-05,-0.0114995,0.00812696,-0.00128967,-0.032845,-0.12831,-0.0242721
19248944,0.999999,-0.00106091,0.000411625,3.6341e-05,-0.000115461,-0.00277407,0.000447445,0.0762181,0.0740772,0.0237836
19256865,0.999999,-0.00113519,-0.000388959,3.31933e-05,0.012945,0.00239837,0.000554015,0.0158971,-0.00864763,0.00148146
19323746,1,-0.000375041,-0.000242055,3.78664e-05,-0.00536727,0.00691906,-0.00119014,-0.00174288,0.0225029,-0.0248968
19331448,1,0.000385296,-0.000586847,3.52569e-05,0.00861104,0.00137633,0.000575494,0.0574296,0.105574,0.0502792
19339472,1,-0.000323067,-0.000166344,4.04074e-05,-0.0121772,0.00800733,-0.00124724,-0.0213654,-0.0425735,-0.0172713
19347550,1,0.000241487,-0.000720341,3.83643e-05,-0.000818525,-0.00283321,0.000438122,0.0518168,0.0408387,0.0240804
19355508,1,-0.000507783,-0.00078088,3.67482e-05,0.0126103,0.00239517,0.00054547,0.00652229,-0.0333209,0.00148534
19363567,1,8.66761e-05,-0.000297216,4.12833e-05,-0.0053746,0.00695032,-0.00118391,-0.00362063,0.00426161,-0.0248734
19371536,1,0.000820475,-0.000549149,3.91555e-05,-0.00483185,-0.00545553,0.000471501,0.0487797,0.11347,0.0241338
19379467,1,3.38034e-05,-0.000271171,4.42359e-05,-0.0120213,0.00804008,-0.0012398,-0.0570897,-0.151479,-0.0248029
19387438,0.999999,0.000572621,-0.000848646,4.23479e-05,-0.000713825,-0.00281459,0.000436073,0.0499444,0.0351686,0.0241123
19395560,1,-0.000176798,-0.000871985,4.08344e-05,0.0126581,0.00240347,0.000544525,0.00537904,-0.0388002,0.00146552
19403530,1,0.000310442,-0.000282174,4.52444e-05,-0.00536463,0.00695411,-0.00118076,-0.00276576,0.000449801,-0.024862
19484453,0.999999,0.00103962,-0.000546065,4.32001e-05,-0.0048409,-0.00545709,0.0004689,0.0493197,0.10919,0.0241712
19492239,1,0.000249345,-0.000277415,4.8217e-05,-0.0120331,0.00804002,-0.00123667,-0.0567958,-0.15604,-0.0248588
19500178,0.999999,0.000126321,-0.00107939,4.63459e-05,0.00867063,0.00416334,0.000518376,0.0436102,-0.0144848,0.0502649
19508128,0.999998,0.000671238,-0.00171797,4.37074e-05,0.0126532,0.00240162,0.000527196,0.00474945,-0.00700626,0.000276246
19516171,0.999999,0.000622944,-0.000944903,4.79174e-05,-0.00536715,0.00695565,-0.001169,-0.0153419,-0.00622164,-0.0248676
19524096,0.999998,0.00136998,-0.00115292,4.5409e-05,-0.0048399,-0.0054578,0.000471062,0.0377888,0.102178,0.0242806
19532021,0.999999,0.000593634,-0.000853466,5.06805e-05,-0.0120323,0.00804206,-0.00121771,-0.0676648,-0.163246,-0.02503
19540012,0.999998,0.00111642,-0.00144525,4.88334e-05,-0.000722608,-0.00281697,0.000433875,0.0390193,0.0234836,0.0241761
19548037,0.999999,0.000378294,-0.00132086,4.76484e-05,0.0126529,0.00240164,0.000535859,-0.00262942,-0.0507156,0.00141896
19556106,1,0.000475387,-0.00055654,5.1909e-05,-0.00536536,0.00695624,-0.0011749,-0.00733719,-0.00377939,-0.0248492
19564318,0.999999,0.00120977,-0.0008046,4.96951e-05,-0.00484032,-0.00545822,0.00046934,0.045047,0.104875,0.0242054
19572064,1,0.000457005,-0.000639834,4.77799e-05,0.00721821,0.00148776,0.000585161,-0.0126336,-0.0869102,0.00109704
19580045,0.999999,0.00119418,-0.000689415,4.57035e-05,-0.01502,-0.00783769,0.000384251,0.0111756,0.0496342,-0.00197913
19588280,1,0.000442099,-0.000575569,4.39634e-05,0.00932744,0.00422989,0.000533826,-0.0255478,-0.189345,0.00103771
19650298,1,-0.000365584,-0.000618701,4.92073e-05,-0.00180091,0.00867648,-0.00119951,0.0046633,-0.0358039,-0.0247955
19658051,1,0.000385564,-0.0008621,4.67678e-05,-0.00112946,-0.00506363,0.000460715,0.0617603,0.155542,0.024244
19666026,1,-0.000304909,-0.000526275,4.49721e-05,0.00860878,0.00137497,0.000574562,-0.00315191,-0.0237817,0.00130449
19674029,1,0.000431668,-0.000565289,4.29333e-05,-0.0153322,-0.00799066,0.000386445,0.0139953,0.0888669,-0.00199135
19681840,1,-0.000229381,-0.00019582,3.64644e-05,0.00217743,0.0170622,0.00166131,-0.0421869,-0.0763374,-0.0207727
19689980,0.999999,-0.00105405,-0.000862788,3.51549e-05,-0.0184894,0.0976403,0.000242782,0.0178894,-0.0601496,0.0202053
19697963,0.999998,-0.00124693,-0.00156519,3.33981e-05,-0.00590671,-0.0199549,0.000296528,0.569232,-0.127173,0.00421442
19705854,0.999999,-0.00124985,-0.000653622,3.36743e-05,0.00278575,-0.0279354,0.000206009,-0.223531,-0.0101357,-0.00160006
19713782,0.999999,-0.00101203,0.000137005,3.40748e-05,0.00389396,-0.00528034,0.000110498,-0.318772,0.0874751,-0.00218042
19721943,1,-0.000477855,0.000721598,3.45188e-05,0.00156974,0.00457485,6.55211e-05,-0.109846,0.0943188,-0.00115944
19729985,1,0.000262963,0.000400436,3.47563e-05,-0.000517127,0.00518709,4.67973e-05,0.0250682,0.0444408,-0.000685062
19737956,1,0.000355977,-0.000409146,3.48921e-05,-0.00120866,0.00356008,3.27539e-05,0.0588366,0.000770072,-0.000418073
19808847,0.999999,0.000155236,-0.00119561,3.51515e-05,-0.00112268,0.00271723,2.74068e-05,0.0478011,-0.0167587,-0.000244367
19816522,0.999998,-0.000320633,-0.00184445,3.57651e-05,-0.000199738,0.00092077,1.38528e-05,0.0200607,-0.0170906,-0.000135388
19824427,0.999999,-0.00088647,-0.00128212,3.69549e-05,0.000270684,0.000590812,8.68535e-06,0.00761133,-0.00323845,-0.000129598
19832488,1,-0.000350788,-0.000688608,3.67714e-05,0.00040371,0.000765038,7.66249e-06,0.00681655,-0.00761045,-0.000135377
19840479,1,0.000114392,-3.95734e-05,3.66554e-05,0.000349184,0.0010775,8.13561e-06,0.0142386,-0.0125509,-0.000132279
19848523,1,-0.000271787,-0.000745744,3.67242e-05,0.000256041,0.00134792,6.37594e-06,-0.000755572,-0.00281535,-9.50466e-05
19856558,1,0.000235408,-0.000131151,3.64925e-05,0.00018424,0.00153328,7.93387e-06,0.0118042,-0.0115744,-9.30435e-05
19864487,1,-0.000191143,-0.000815731,3.66824e-05,0.000136364,0.0016429,6.26822e-06,-0.000818919,-0.00234938,-6.85092e-05
19872682,1,0.000312058,-0.000198819,3.63694e-05,0.000100773,0.00170013,8.0403e-06,0.0118405,-0.0115493,-7.50151e-05
19880510,1,-0.000161268,-0.000852041,3.66397e-05,7.08906e-05,0.00172759,6.26696e-06,-0.000747442,-0.00181746,-5.69132e-05
19888542,1,0.00032024,-0.000219519,3.63107e-05,4.61766e-05,0.00174119,7.98554e-06,0.0116451,-0.0110326,-6.73146e-05
19896524,1,-0.00016812,-0.000860536,3.65957e-05,2.796e-05,0.00174967,6.21648e-06,-0.00104343,-0.00137523,-5.29017e-05
19904436,1,0.00031095,-0.00022685,3.62695e-05,2.13837e-05,0.0017532,7.90877e-06,0.0112834,-0.0107266,-6.44169e-05
19912484,1,-0.000178567,-0.000866559,3.65521e-05,1.0277e-05,0.00176253,6.16399e-06,-0.00135982,-0.00110943,-5.16246e-05
19978593,1,0.000303996,-0.000235238,3.62264e-05,8.69231e-06,0.00176517,7.86332e-06,0.0109608,-0.0105349,-6.28166e-05
19986301,1,-0.000181327,-0.000878475,3.65089e-05,7.15486e-06,0.00177124,6.13561e-06,-0.00167848,-0.00093478,-5.0933e-05
19994130,1,0.000304083,-0.000248555,3.61766e-05,7.22598e-06,0.0017737,7.85733e-06,0.0106707,-0.0103518,-6.17555e-05
20002425,1,-0.00018013,-0.000893375,3.64659e-05,7.44352e-06,0.00177514,6.12141e-06,-0.00197942,-0.000731048,-5.05796e-05
20010324,1,0.000305467,-0.000262994,3.61255e-05,7.51665e-06,0.00177586,7.84724e-06,0.0103776,-0.010128,-6.09901e-05
20018224,1,-0.000178904,-0.000907878,3.64229e-05,7.47408e-06,0.00177618,6.10905e-06,-0.00228163,-0.000501155,-5.0498e-05
20026317,1,0.000305657,-0.00027778,3.60756e-05,7.37565e-06,0.00177628,7.83212e-06,0.0100614,-0.00988125,-6.03291e-05
20034456,1,-0.000178381,-0.000921985,3.638e-05,7.2724e-06,0.00177632,6.09534e-06,-0.00259055,-0.000265123,-5.05209e-05
20042382,1,0.000305703,-0.000292149,3.6026e-05,7.16867e-06,0.00177633,7.8166e-06,0.00974424,-0.00963869,-5.9746e-05
20050399,1,-0.000178423,-0.000936455,3.63375e-05,7.13973e-06,0.00177636,6.07985e-06,-0.00291059,-2.25273e-05,-5.05934e-05
20058498,1,0.000306278,-0.000305821,3.59761e-05,7.10562e-06,0.00177637,7.80334e-06,0.00944008,-0.00940833,-5.92162e-05
20125379,1,-0.000178216,-0.000950799,3.6295e-05,7.09489e-06,0.0017764,6.06523e-06,-0.00322737,0.000215623,-5.06918e-05
20133336,1,0.000306628,-0.000319849,3.59266e-05,7.09898e-06,0.00177641,7.78931e-06,0.00913001,-0.00917276,-5.86948e-05
20141337,1,-0.000177865,-0.00096513,3.62526e-05,7.10529e-06,0.00177642,6.05123e-06,-0.00354307,0.00045164,-5.0805e-05
20149272,1,0.000306765,-0.000334202,3.58772e-05,7.0839e-06,0.00177642,7.77446e-06,0.00881395,-0.00893212,-5.81834e-05
20157170,1,-0.000176843,-0.00097856,3.62098e-05,7.10091e-06,0.00177642,6.03237e-06,-0.00384107,0.000674645,-5.09263e-05
20165335,1,0.000307454,-0.00034783,3.58276e-05,7.08647e-06,0.00177641,7.7617e-06,0.00851202,-0.00870249,-5.77087e-05
20173030,0.999999,-0.000176721,-0.000993285,3.61678e-05,7.07755e-06,0.00177641,6.02474e-06,-0.00416456,0.000915655,-5.10808e-05
20181112,1,0.000309484,-0.000364586,3.57763e-05,7.07673e-06,0.00177639,7.74259e-06,0.00813997,-0.00843848,-5.71607e-05
20189138,0.999999,-0.000183173,-0.00100194,3.61265e-05,7.07712e-06,0.00177639,5.9867e-06,-0.00436913,0.00128528,-5.12101e-05
20197172,1,0.000311823,-0.000380396,3.57248e-05,7.05198e-06,0.00177638,7.73554e-06,0.0077951,-0.00824108,-5.67145e-05
20205273,0.999999,-0.000191364,-0.00101038,3.6086e-05,7.06799e-06,0.00177638,5.94243e-06,-0.00456942,0.00168891,-5.13617e-05
20269321,1,0.000311252,-0.000394972,3.56766e-05,7.0526e-06,0.00177637,7.72931e-06,0.00748317,-0.00804761,-5.63097e-05
20277119,0.999999,-0.00019212,-0.00102396,3.60446e-05,7.04395e-06,0.00177637,5.92447e-06,-0.00487054,0.00194701,-5.15564e-05
20285163,1,0.0003112,-0.000408878,3.5628e-05,7.04395e-06,0.00177635,7.71387e-06,0.00717568,-0.0078036,-5.58818e-05
20293176,0.999999,-0.000193547,-0.00103808,3.60037e-05,7.04467e-06,0.00177635,5.90421e-06,-0.00518217,0.00221806,-5.17726e-05
20301201,1,0.000310757,-0.000423273,3.558e-05,7.01987e-06,0.00177634,7.69697e-06,0.00685863,-0.00755164,-5.54596e-05
20309399,0.999999,-0.000194414,-0.00105093,3.59624e-05,7.03586e-06,0.00177634,5.88591e-06,-0.00546882,0.00247805,-5.19896e-05
20317229,1,0.000311168,-0.000436605,3.55313e-05,7.02048e-06,0.00177633,7.68324e-06,0.00656241,-0.00731664,-5.50777e-05
20325282,0.999999,-0.000195151,-0.00106301,3.59209e-05,7.01166e-06,0.00177633,5.86805e-06,-0.00574057,0.00273576,-5.22153e-05
20333284,1,0.000311583,-0.000449888,3.54828e-05,7.01165e-06,0.00177631,7.66947e-06,0.00626715,-0.00708182,-5.47113e-05
20341210,0.999999,-0.000196608,-0.00107496,3.58798e-05,7.01221e-06,0.00177631,5.84771e-06,-0.00600964,0.00300739,-5.2455e-05
20349313,0.999999,-0.000924358,-0.000878753,4.30719e-05,0.00711616,0.0165463,-0.00160035,-0.0341272,-0.115493,-0.0229083
20357211,0.999999,-0.000121441,-0.00115718,4.12469e-05,0.0130261,0.000560743,0.000216227,0.0866588,0.215081,0.0257449
20365365,0.999999,0.000626321,-0.000997502,3.96667e-05,-0.0102317,-0.00544719,0.000163574,-0.0171028,0.123744,-0.000376756
20441693,1,-0.000132108,-0.000736974,4.6021e-05,-0.00550085,0.0132723,-0.00145802,-0.092464,-0.231963,-0.0239627
20449574,0.999999,0.000511765,-0.00125175,4.42862e-05,0.007605,0.000180586,0.000294507,0.0547385,0.0527658,0.0252155
20457515,0.999999,0.0012113,-0.000922858,4.23531e-05,-0.00962738,-0.00500655,0.00020093,-0.0131003,0.038949,-0.000784446
20465513,1,0.000491679,-0.000790836,4.12493e-05,0.0163521,0.00706516,0.000408909,-0.0267487,-0.160171,0.00184095
20473548,0.999999,0.00125142,-0.00095431,3.9594e-05,-0.0050583,-0.00503984,0.000272013,0.0337919,0.114913,-0.000924174
20481568,1,0.000532336,-0.000766417,3.82785e-05,0.0136515,0.00474213,0.000449924,-0.0200871,-0.0995941,0.00175453
20489561,1,1.32655e-05,-0.00018539,4.33597e-05,-0.00185589,0.00869171,-0.00125504,0.00231585,-0.00750311,-0.0245371
20497731,1,0.000758148,-0.000434853,4.14727e-05,-0.00239405,-0.00491223,0.000427712,0.0539713,0.130205,0.0245547
20505547,1,-1.14227e-05,-0.00012544,4.65593e-05,-0.0112463,0.00820085,-0.00126705,-0.0591321,-0.139609,-0.0246152
20513516,1,0.000539363,-0.000694107,4.47959e-05,-0.000719168,-0.00265091,0.000417869,0.0455972,0.0326154,0.0242506
20521627,1,-0.000210017,-0.000671243,4.31705e-05,0.0126432,0.00258863,0.000538116,0.0031268,-0.0479679,0.00152685
20529569,0.999999,0.000566772,-0.000823504,4.0778e-05,-0.00116093,-0.00485492,0.000449024,0.0438738,0.169202,-0.00187675
20537631,0.999999,0.00133267,-0.000636472,3.8128e-05,-0.00450702,-0.00531705,0.000462943,0.00447987,-0.00109208,0.000161752
20629022,1,0.000548663,-0.000356543,4.30919e-05,-0.0117331,0.00812885,-0.00122994,-0.0605386,-0.158263,-0.0250078
20636835,0.999999,0.00107843,-0.00094492,4.14836e-05,-0.00052308,-0.00275791,0.000431293,0.0464009,0.0305214,0.024235
20644799,1,0.000329991,-0.00091157,3.99977e-05,0.0127446,0.00243165,0.000544579,0.00285846,-0.0435077,0.0014312
20652818,1,0.000648006,-0.000214909,4.41889e-05,-0.00535407,0.00696091,-0.00117932,-0.00337249,-0.00186901,-0.0248978
20660835,0.999999,0.00137587,-0.000481096,4.23015e-05,-0.00485844,-0.00545129,0.000464678,0.0484828,0.105891,0.0243172
20668908,1,0.00058467,-0.000215143,4.71577e-05,-0.0120619,0.00803584,-0.00123085,-0.0577555,-0.160003,-0.0250126
20676724,0.999999,0.00107079,-0.000838633,4.567e-05,-0.000739581,-0.00281439,0.000433001,0.0482724,0.0271656,0.0241919
20684746,1,0.000320572,-0.000835869,4.41236e-05,0.0126469,0.00240392,0.000547625,0.00421745,-0.0468816,0.00141914
20692874,1,0.000589973,-0.000117368,4.83786e-05,-0.00537015,0.00695174,-0.00118016,-0.00138475,-0.00325645,-0.0248981
20700759,0.999999,0.00131337,-0.000395258,4.65542e-05,-0.00483877,-0.00545342,0.000464848,0.0504422,0.105724,0.0242751
20708755,1,0.000519459,-0.000136203,5.13822e-05,-0.012034,0.00803766,-0.00123395,-0.0558251,-0.159341,-0.0249747
20799273,0.999999,0.00100198,-0.000762339,4.98923e-05,-0.00072029,-0.00281387,0.00043345,0.0502163,0.0282598,0.0241688
20807231,1,0.000251625,-0.000787885,4.83104e-05,0.012656,0.00240365,0.000548633,0.00560875,-0.045713,0.00142543
20815176,1,0.000573982,-9.18896e-05,5.25962e-05,-0.00536722,0.006952,-0.00118027,-0.000451454,-0.00319516,-0.0248901
20823262,0.999999,0.00129547,-0.000374534,5.07892e-05,-0.00484046,-0.00545482,0.000464789,0.0512722,0.105721,0.0242557
20831088,1,0.000500292,-0.000118695,5.56144e-05,-0.0120354,0.00803789,-0.00123501,-0.0550767,-0.15939,-0.0249564
20839250,0.999999,0.000978036,-0.000748209,5.41229e-05,-0.000722644,-0.00281483,0.000433587,0.0509,0.0282587,0.0241549
20847312,1,0.00022794,-0.000783736,5.25383e-05,0.0126544,0.00240299,0.000548646,0.00609332,-0.0457296,0.00142813
20855336,1,0.000557062,-9.09553e-05,5.68376e-05,-0.00536689,0.00695274,-0.00118022,-3.15683e-05,-0.00334123,-0.0248821
20863250,0.999999,0.00127755,-0.000376029,5.50276e-05,-0.0048405,-0.00545541,0.000464903,0.0516493,0.105601,0.0242384
20871195,1,0.000515266,-0.000262664,5.28209e-05,0.00721949,0.00148929,0.000591127,-0.00704138,-0.0860187,0.00109402
20879311,0.999999,0.00124385,-0.000372173,5.11045e-05,-0.0150212,-0.00783444,0.000374709,0.0155887,0.0507111,-0.00196755
20887417,1,0.000489264,-0.000274894,4.91174e-05,0.00932944,0.00423066,0.000539568,-0.0214517,-0.188245,0.00102475
20895450,0.999999,0.00118917,-0.000650376,4.73458e-05,-0.000114601,-0.00277641,0.000435169,0.0581868,0.0898808,-0.00192609
20961749,0.999998,0.00183898,-0.00109231,4.56248e-05,-0.00112858,-0.00506229,0.000446743,0.0161242,0.0091952,0.000363459
20969648,0.999999,0.00112198,-0.000823522,4.36512e-05,0.00861091,0.00137503,0.000573572,-0.0107921,-0.0497318,0.00119817
20977915,0.999998,0.00186174,-0.000811748,4.14415e-05,-0.0153329,-0.00798865,0.00037184,0.00735507,0.0628766,-0.00175204
20985732,0.999999,0.00110858,-0.000681872,3.96873e-05,0.00854906,0.00413884,0.000533895,-0.0313729,-0.200682,0.000777875
20993745,1,0.000300682,-0.000652852,4.49305e-05,-0.0023359,0.00864747,-0.0011912,0.00016817,-0.0582337,-0.024888
21001830,0.999999,0.0010458,-0.000914157,4.26676e-05,-0.00128043,-0.00504533,0.000453176,0.0576602,0.133281,0.0244696
21009767,1,0.000329121,-0.000643871,4.07782e-05,0.00870015,0.00141156,0.000573535,-0.00763883,-0.0408699,0.00126353
21017782,0.999999,0.00106704,-0.00066066,3.86963e-05,-0.0151709,-0.00795349,0.000379142,0.0105888,0.0762165,-0.0018742
21025894,1,0.000314752,-0.000533375,3.69513e-05,0.00868187,0.00416477,0.00052952,-0.027874,-0.184822,0.00110009
21033868,1,-0.000494193,-0.000539068,4.21666e-05,-0.00226009,0.00866034,-0.00120541,0.00305398,-0.0416312,-0.024796
21041899,1,0.000255176,-0.000787283,3.9755e-05,-0.00125466,-0.00503995,0.000460606,0.0607664,0.149646,0.0242218
21049855,1,-0.000440101,-0.000463574,3.79585e-05,0.0086974,0.00141255,0.000574361,-0.00358447,-0.0254916,0.00131773
21057892,1,0.000296872,-0.000502223,3.59613e-05,-0.015183,-0.00795505,0.000386376,0.0141404,0.0911341,-0.00200918
21065965,1,-0.000456632,-0.000378365,3.42113e-05,0.00866927,0.00416394,0.000525821,-0.0244332,-0.17015,0.00138464
21073925,0.999999,-0.00126496,-0.000446328,3.9323e-05,-0.00226696,0.00865853,-0.00121884,0.00525408,-0.0271234,-0.0247324
21081932,1,-0.00051245,-0.000683545,3.67721e-05,-0.0012581,-0.00504011,0.000468028,0.0631988,0.164158,0.023956
21089922,0.999999,-0.00114262,-0.00024312,3.51689e-05,0.00869639,0.00141313,0.000576163,0.00113468,-0.0122464,0.00134522
21180478,1,-0.000382225,-0.000402468,3.2821e-05,-0.00484041,-0.00545675,0.000482665,0.0433279,0.157346,-0.00242847
21188457,0.999999,-0.00115763,-0.000101344,3.82228e-05,-0.0120297,0.00803812,-0.00126471,-0.0524474,-0.129036,-0.0244122
21196265,0.999999,-0.00148464,-0.000871094,4.22538e-05,-0.00226666,0.00865911,-0.00122034,0.0145075,-0.0100721,0.000263346
21204308,0.999999,-0.000721442,-0.0010744,3.93593e-05,-0.00125741,-0.0050404,0.000471063,0.0559262,0.167818,0.0239217
21212274,0.999999,-0.00117128,-0.000443418,3.80679e-05,0.00869632,0.00141275,0.000572556,-0.00238607,-0.0121301,0.00134625
21220283,0.999999,-0.00148237,0.00027967,4.37825e-05,-0.00796848,0.00687348,-0.0011982,-0.00165499,-0.00752365,-0.0249015
21228393,1,-0.000776974,-3.6477e-05,4.15055e-05,-0.00535501,-0.005334,0.00049128,0.0582704,0.108136,0.0235997
21236369,0.999999,-0.00157041,0.000216145,4.67489e-05,-0.0114947,0.00813293,-0.0012743,-0.0443564,-0.13285,-0.0242773
21244337,1,-0.000821663,-2.28162e-05,4.03379e-05,-0.0065952,0.0101589,0.00157052,0.04817,0.166131,0.00223316
21252214,0.999998,-0.00132238,0.00142033,4.37905e-05,0.00476198,-0.208761,-0.00046529,-0.203179,-0.188142,-4.03261
21318223,0.999999,-0.00114522,0.000256392,4.12957e-05,0.000961435,0.0954235,0.000391797,0.545496,0.110934,8.10921
21325979,0.999999,-0.00106284,-0.000397257,3.90914e-05,-0.00822407,-0.0347602,0.000348886,0.339702,0.0430256,0.0012498
21334045,0.999999,-0.00112827,0.000465643,3.91115e-05,-0.0047668,-0.0159401,0.000212482,-0.344976,-0.025875,-0.00204457
21342083,0.999999,-0.0011097,0.0012599,3.9531e-05,-0.000713577,0.00158255,0.000120814,-0.202111,-0.000273574,-0.00128659
21349889,0.999999,-0.000347154,0.00149162,4.04663e-05,0.000943549,0.00555951,8.34375e-05,-0.00544326,0.0244298,-0.000950354
21358042,1,5.1657e-05,0.000778195,4.06092e-05,0.00073653,0.00441779,5.66256e-05,0.0709659,0.0316426,-0.0006849
21365989,1,0.000306388,8.35154e-06,4.07097e-05,5.04556e-05,0.0026326,3.7248e-05,0.0745662,0.0173855,-0.000401925
21373874,1,0.000383413,-0.000793317,4.08619e-05,-0.000310163,0.00126673,2.48189e-05,0.0467235,-0.00184634,-0.000220066
21382003,0.999999,5.14873e-05,-0.00152402,4.13398e-05,-0.00023665,0.000518744,1.65824e-05,0.0120056,-0.00914734,-0.000151304
21389970,0.999999,-0.000478036,-0.000924612,4.20717e-05,4.29033e-05,0.000350917,1.09739e-05,0.00637252,-0.00470312,-0.000140634
21451122,1,-0.000357493,-0.000135068,4.23073e-05,0.000223546,0.000664119,8.64783e-06,0.0119836,-0.00699719,-0.000134235
21458820,1,-0.000232551,-0.000929812,4.19803e-05,0.000248905,0.00109838,7.16184e-06,-0.00583092,-0.00764258,-0.000113169
21466816,1,-0.000243875,-0.000135599,4.21531e-05,0.000211101,0.00141374,6.87322e-06,0.0112949,-0.00585514,-9.8338e-05
21474800,1,-0.000105213,-0.00093056,4.19186e-05,0.000175696,0.00158291,6.68237e-06,-0.00235274,-0.00722517,-7.77196e-05
21482841,1,-9.21104e-05,-0.000137094,4.19681e-05,0.000152897,0.00165712,6.82542e-06,0.0142668,-0.00610273,-7.70027e-05
21490750,1,6.69042e-06,-0.000937785,4.18583e-05,0.000131473,0.00168621,6.83072e-06,-0.00127341,-0.00672387,-6.13592e-05
21498835,1,3.73791e-05,-0.000144356,4.18014e-05,0.000104534,0.00170054,7.06543e-06,0.0139521,-0.00630298,-6.77806e-05
21506846,1,6.28727e-05,-0.000951666,4.18041e-05,7.44067e-05,0.00171353,6.98055e-06,-0.00234764,-0.0061885,-5.62961e-05
21514859,1,6.56321e-05,-0.000158631,4.1728e-05,4.7012e-05,0.00172816,7.07706e-06,0.0128271,-0.00598464,-6.31758e-05
21522909,1,6.74309e-05,-0.000965614,4.17567e-05,2.6673e-05,0.00174289,7.02234e-06,-0.00322387,-0.00597466,-5.45219e-05
21530901,1,6.28816e-05,-0.000171982,4.16837e-05,1.42762e-05,0.0017555,7.03852e-06,0.012253,-0.00591438,-6.09958e-05
21538885,1,6.5944e-05,-0.000979518,4.17101e-05,8.33995e-06,0.00176477,7.02831e-06,-0.003593,-0.00598803,-5.35666e-05
21546845,1,6.62228e-05,-0.000185465,4.16337e-05,6.41716e-06,0.00177066,7.03578e-06,0.0120048,-0.00595835,-5.9885e-05
21609506,1,7.54783e-05,-0.00099338,4.16617e-05,6.42254e-06,0.00177389,7.05108e-06,-0.00381702,-0.00605662,-5.30987e-05
21617463,1,7.67269e-05,-0.000199131,4.15767e-05,6.9658e-06,0.00177537,7.05809e-06,0.0117716,-0.00596728,-5.92173e-05
21625404,0.999999,9.07967e-05,-0.00100708,4.1612e-05,7.43131e-06,0.00177591,7.08807e-06,-0.0040785,-0.00611447,-5.30054e-05
21633520,1,8.85277e-05,-0.000213304,4.15182e-05,7.60004e-06,0.00177605,7.08391e-06,0.0114763,-0.00593887,-5.8719e-05
21641551,0.999999,0.00010694,-0.00102051,4.15618e-05,7.5793e-06,0.00177608,7.1291e-06,-0.00437444,-0.00617104,-5.31021e-05
21649509,1,9.94887e-05,-0.000227651,4.14604e-05,7.44005e-06,0.00177612,7.10691e-06,0.0111559,-0.00590011,-5.82942e-05
21657524,0.999999,0.000123214,-0.00103448,4.15112e-05,7.30385e-06,0.00177619,7.17176e-06,-0.00468831,-0.0062429,-5.32748e-05
21665551,1,0.000109809,-0.000241311,4.1403e-05,7.19093e-06,0.00177627,7.12816e-06,0.0108496,-0.00585956,-5.79164e-05
21673505,0.999999,0.000140245,-0.00104826,4.14601e-05,7.14394e-06,0.00177634,7.21718e-06,-0.00499485,-0.0063358,-5.34793e-05
21681510,1,0.000119904,-0.000254537,4.13456e-05,7.10566e-06,0.00177638,7.14882e-06,0.0105554,-0.00581642,-5.75625e-05
21689586,0.999999,0.000158452,-0.00106174,4.14084e-05,7.11283e-06,0.00177641,7.26668e-06,-0.00529349,-0.00645122,-5.37068e-05
21697500,1,0.000129888,-0.000268015,4.12882e-05,7.10865e-06,0.00177642,7.16898e-06,0.0102569,-0.00576986,-5.7216e-05
21705535,0.999999,0.000178033,-0.00107502,4.13558e-05,7.11676e-06,0.00177642,7.32102e-06,-0.00558832,-0.00659224,-5.39608e-05
21776380,1,0.000139752,-0.000281752,4.12308e-05,7.10841e-06,0.00177641,7.18877e-06,0.009953,-0.00572012,-5.68725e-05
21784269,0.999999,0.000199046,-0.00108723,4.13023e-05,7.1176e-06,0.0017764,7.38037e-06,-0.00586239,-0.00676113,-5.42361e-05
21792218,1,0.00014947,-0.000294792,4.11733e-05,7.09805e-06,0.0017764,7.20807e-06,0.00966248,-0.00566738,-5.65499e-05
21800300,0.999999,0.000221657,-0.00109901,4.12477e-05,7.10345e-06,0.00177639,7.4455e-06,-0.0061283,-0.00696142,-5.45388e-05
21808244,1,0.000159093,-0.000307774,4.11157e-05,7.09004e-06,0.00177638,7.22696e-06,0.00937306,-0.00561303,-5.62386e-05
21816234,0.999999,0.000246267,-0.00111136,4.11921e-05,7.08954e-06,0.00177637,7.51775e-06,-0.00640516,-0.00720092,-5.48875e-05
21824113,1,0.000168746,-0.000321744,4.10581e-05,7.0757e-06,0.00177637,7.24601e-06,0.00906429,-0.00555929,-5.59179e-05
21832205,0.999999,0.000273081,-0.00112221,4.1135e-05,7.08286e-06,0.00177636,7.59775e-06,-0.00665288,-0.00748378,-5.52651e-05
21840082,1,0.000178277,-0.000334713,4.10003e-05,7.06322e-06,0.00177636,7.26466e-06,0.00877519,-0.00550306,-5.56221e-05
21848194,0.999999,0.000302426,-0.00113218,4.10762e-05,7.06953e-06,0.00177635,7.68683e-06,-0.00688308,-0.00781626,-5.56835e-05
21856430,1,0.000187784,-0.000347442,4.09423e-05,7.05699e-06,0.00177634,7.28314e-06,0.00849079,-0.00544647,-5.53411e-05
21864187,0.999999,0.000334905,-0.00114181,4.10156e-05,7.06262e-06,0.00177634,7.77977e-06,-0.00710674,-0.00821011,-5.61644e-05
21872264,1,0.000197431,-0.000360748,4.08842e-05,7.04355e-06,0.00177633,7.30217e-06,0.00819507,-0.00539257,-5.50593e-05
21880373,0.999999,0.000370846,-0.00114917,4.09524e-05,7.05075e-06,0.00177632,7.89955e-06,-0.00728577,-0.00867196,-5.66936e-05
21961238,1,0.000206981,-0.000373076,4.08258e-05,7.03652e-06,0.00177632,7.31361e-06,0.00791854,-0.00533673,-5.48016e-05
21968998,0.999999,0.000410699,-0.00115405,4.08864e-05,7.03716e-06,0.00177631,8.02604e-06,-0.00741634,-0.00921052,-5.72821e-05
21977036,1,0.000216491,-0.000384748,4.07669e-05,7.02456e-06,0.0017763,7.33942e-06,0.00765489,-0.00528022,-5.4562e-05
21985065,0.999999,0.000455213,-0.00115662,4.08171e-05,7.02453e-06,0.00177629,8.16913e-06,-0.00750138,-0.00984045,-5.79581e-05
21993015,0.999999,-0.000234532,-0.00127146,4.07512e-05,0.0267289,0.0101698,0.000228847,0.00866927,-0.0560438,0.00306936
22001250,0.999999,0.000552879,-0.00136831,3.89351e-05,-0.001087,-0.00470566,0.00018742,0.0402475,0.232915,-0.000259082
22009059,1,0.00044963,-0.000553528,3.79672e-05,-0.013618,-0.00375466,0.000133952,-0.0482264,-0.00818127,-0.000801779
22017132,1,-0.000273277,-0.000470807,3.69056e-05,0.0173711,0.00863446,0.000360765,-0.0248655,-0.204845,0.00232968
22025322,1,0.000481967,-0.000684122,3.54738e-05,-0.00300083,-0.00447629,0.000244729,0.041909,0.115449,-0.000935274
22033172,1,-0.000261592,-0.000391376,4.13843e-05,-0.00447851,0.0114443,-0.00140075,-0.0651815,-0.154174,-0.0239687
22041127,1,0.000450034,-0.000794586,3.96242e-05,0.00565252,-0.000844078,0.000340694,0.0616076,0.08931,0.0249193
22049214,1,-0.000233279,-0.000388244,4.52257e-05,-0.0041597,0.00950526,-0.00132311,-0.0347468,-0.0641742,-0.0240595
22057252,1,0.00051024,-0.000692021,4.33392e-05,0.00161167,-0.00265582,0.00037601,0.054138,0.108475,0.0247057
22065246,1,-0.000220932,-0.000344199,4.88098e-05,-0.00732281,0.00900097,-0.00130209,-0.0464313,-0.0981921,-0.0242898
22129719,1,0.00048219,-0.000722356,4.68903e-05,0.000671775,-0.002654,0.000392975,0.0508179,0.0760443,0.0245152
22137728,1,-0.000262593,-0.000623109,4.53077e-05,0.0122737,0.00248879,0.000524787,0.00130014,-0.0326464,0.00163379
22145568,1,-0.000278445,0.000148604,5.0343e-05,-0.00589621,0.00710972,-0.00121376,-0.0035041,-0.00538008,-0.024809
22153641,1,0.000440451,-0.000139617,4.84775e-05,-0.00487382,-0.0052499,0.000462565,0.0505561,0.101993,0.024099
22161799,1,-0.000353151,0.000116717,5.34305e-05,-0.0116618,0.00822434,-0.00125884,-0.0533144,-0.154132,-0.0246651
22169707,1,0.000199319,-0.000452124,5.15427e-05,-0.000236799,-0.00266307,0.000433431,0.0554824,0.0419929,0.0241246
22177759,1,-0.000534103,-0.000620192,4.9724e-05,0.0130356,0.00250316,0.000546174,0.00878945,-0.0265576,0.00150003
22185897,1,0.000152288,-0.000271981,5.42609e-05,-0.00515975,0.00700299,-0.00118656,-0.0039908,0.010415,-0.0248928
22193886,0.999999,0.000906816,-0.000628818,5.18191e-05,0.00883272,0.00144988,0.000574057,0.0553329,0.0964901,0.0504808
22201945,1,0.000182217,-0.000231865,5.67735e-05,-0.0120456,0.00804169,-0.00123725,-0.0236889,-0.0493295,-0.0173321
22209689,0.999999,0.000724804,-0.000805682,5.49964e-05,-0.000756744,-0.00281404,0.000434677,0.0490428,0.0348777,0.0241725
22217743,1,-2.4772e-05,-0.000812011,5.3436e-05,0.0126229,0.00240213,0.00054645,0.00470161,-0.0398993,0.00145017
22304778,1,0.000424577,-0.000192966,5.78177e-05,-0.00538835,0.00694984,-0.00118179,-0.00289748,-0.000150839,-0.024898
22312673,0.999999,0.00115357,-0.000457172,5.58757e-05,-0.00484796,-0.00545371,0.000467143,0.0491795,0.10866,0.0242478
22320890,1,0.000395136,-0.000319437,5.37209e-05,0.00722022,0.0014911,0.000590045,-0.00900198,-0.0829297,0.00111325
22328855,0.999999,0.0011268,-0.00040271,5.19231e-05,-0.0150185,-0.00783184,0.000377769,0.0141619,0.053869,-0.00197198
22336781,1,0.000373379,-0.000297947,4.99683e-05,0.00933376,0.00423204,0.000538024,-0.0227186,-0.18504,0.00106276
22344800,1,-0.000432665,-0.000396041,5.50236e-05,-0.00180137,0.00867064,-0.00120394,0.00640391,-0.0314839,-0.0248629
22352713,1,0.000318056,-0.000640103,5.2733e-05,-0.00112769,-0.00505939,0.00046122,0.0634751,0.159922,0.0242782
22360699,1,-0.00036799,-0.00029782,5.07861e-05,0.00861133,0.00137748,0.000578617,-0.00129372,-0.0195375,0.00130893
22368798,1,0.000367123,-0.000346996,4.89299e-05,-0.015334,-0.00798583,0.000381774,0.0156522,0.0931471,-0.0019881
22376578,1,-0.000387814,-0.000228515,4.70427e-05,0.00854929,0.00414067,0.00052912,-0.0232924,-0.17039,0.00135335
22384667,0.999999,-0.00119529,-0.000317905,5.20322e-05,-0.00233635,0.00864191,-0.00121942,0.00590509,-0.028027,-0.0247836
22392767,1,-0.000444008,-0.000558451,4.95935e-05,-0.00128061,-0.00504271,0.000467394,0.0638252,0.163525,0.02401
22454922,0.999999,-0.00108758,-0.000138433,4.78691e-05,0.00870034,0.00141381,0.000578425,0.00145794,-0.0121393,0.00134155
22462780,1,-0.000353875,-0.000201366,4.60569e-05,-0.0151718,-0.0079507,0.000388116,0.0187767,0.105028,-0.00213864
22470888,0.999999,-0.00110977,-8.73919e-05,4.41592e-05,0.00868246,0.00416655,0.000525255,-0.0199384,-0.155942,0.00160116
22478836,0.999998,-0.00189251,-0.000326299,4.88544e-05,-0.00226053,0.008655,-0.00123137,0.00640096,-0.013333,-0.0247448
22486858,0.999999,-0.00113549,-0.000551371,4.62419e-05,-0.00125457,-0.00503739,0.000474124,0.0645767,0.177944,0.0237613
22494831,0.999999,-0.00142932,0.000172435,4.49634e-05,0.00869751,0.00141433,0.00058272,0.00807397,-0.00514337,0.00134443
22502775,1,-0.000699764,7.55467e-05,4.33254e-05,-0.0151839,-0.0079526,0.000384991,0.0246515,0.111627,-0.0022277
22510919,0.999999,-0.00145891,0.000166158,4.12334e-05,0.00866972,0.00416527,0.000526771,-0.0145647,-0.149552,0.00171998
22518992,0.999998,-0.00212873,-0.000321468,4.53299e-05,-0.00226773,0.00865446,-0.00123513,0.00688102,-0.00928307,-0.0247269
22526920,0.999999,-0.00137057,-0.000543839,4.2664e-05,-0.00125791,-0.00503804,0.000476416,0.0651176,0.181984,0.0236649
22588169,0.999999,-0.00140866,0.000248457,4.15106e-05,0.00869665,0.00141409,0.00058405,0.00995966,-0.00608451,0.00134356
22595898,1,-0.000681194,0.000139666,3.99239e-05,-0.0151827,-0.00795316,0.000382594,0.026311,0.110768,-0.00222946
22603884,0.999999,-0.00144152,0.000221612,3.77702e-05,0.00867029,0.00416533,0.000527947,-0.013073,-0.150351,0.00171955
22611909,0.999998,-0.00209446,-0.000289765,4.1806e-05,-0.0022663,0.00865566,-0.00123433,0.00790854,-0.0103991,-0.0247159
22619923,0.999999,-0.00133788,-0.000516884,3.91641e-05,-0.00125761,-0.00503859,0.000475977,0.0660614,0.180892,0.0236621
22627958,0.999999,-0.0014693,0.000260896,3.80105e-05,0.00869631,0.00141387,0.000584056,0.0106117,-0.00534116,0.00134442
22635934,0.999998,-0.00160131,0.00102724,4.38954e-05,-0.00796805,0.00687149,-0.00121233,0.0121567,-0.00425521,-0.0249278
22643944,0.999999,-0.000924184,0.0006587,4.20211e-05,-0.00535551,-0.00533256,0.000485663,0.071114,0.111982,0.0235012
22651850,0.999998,-0.00173737,0.000856386,4.67565e-05,-0.0114953,0.00813056,-0.0012909,-0.0326395,-0.128648,-0.0242088
22659798,0.999999,-0.00140878,9.29721e-05,4.35735e-05,0.00932721,0.00423201,0.000530462,0.0695294,0.0186443,0.0500973
22667867,1,-0.000722736,-0.000404074,4.07088e-05,0.0129429,0.00239651,0.000555659,0.0330108,0.0297075,0.000189812
22675900,1,3.33425e-05,-0.000238633,4.52964e-05,-0.00536483,0.00692354,-0.00118328,2.05854e-06,0.0126273,-0.0248479
22739019,1,0.00076314,-0.00049795,4.31974e-05,-0.00497534,-0.00549477,0.000472019,0.0514876,0.116966,0.0240804
22746904,1,-2.77826e-05,-0.000228556,4.82735e-05,-0.0121731,0.00801181,-0.00124262,-0.0550516,-0.151429,-0.0247494
22754927,1,0.000491923,-0.000822604,4.63741e-05,-0.000819147,-0.00283524,0.000436905,0.0515003,0.0340127,0.0240666
22762894,1,-0.000285634,-0.000630728,5.16809e-05,-0.00233418,0.00864914,-0.0012007,-0.0538023,-0.202939,-0.0473469
22771013,1,0.000465165,-0.000870735,5.58815e-05,-0.00537342,0.0069548,-0.00117123,0.015043,0.0328949,0.000267946
22779011,0.999999,0.00120939,-0.00108871,5.33993e-05,-0.00483147,-0.00545825,0.000472063,0.0398632,0.103917,0.0242124
22786872,1,0.000431127,-0.000793344,5.86955e-05,-0.0120182,0.00804496,-0.00122248,-0.0656356,-0.161124,-0.0249474
22794938,0.999999,0.000202323,-0.00156547,5.71335e-05,0.00868133,0.00416375,0.00051079,0.0353278,-0.0173708,0.0502424
22802952,0.999998,0.00101945,-0.0015137,4.91673e-05,0.00629942,0.015318,0.00170739,-0.00451792,0.0515846,-0.0144516
22810961,0.999999,0.000163594,-0.00167989,4.8055e-05,-0.0215211,0.0959645,0.00053429,-0.00840902,-0.0250354,0.0201469
22819066,0.999997,-0.000115605,-0.00236245,4.75096e-05,-0.00945347,-0.020374,0.000288532,0.53806,-0.173139,0.00458118
22827069,0.999999,-0.000309744,-0.00147494,4.74126e-05,0.00129319,-0.0278686,0.00016144,-0.245745,-0.0709805,-0.002122
22890532,1,-0.000168117,-0.000663439,4.70674e-05,0.00403174,-0.00516566,0.000100973,-0.334392,0.0476788,-0.00260808
22898513,1,0.000284256,-1.4595e-05,4.66243e-05,0.00221234,0.00464173,7.40447e-05,-0.122134,0.0781552,-0.00122361
22906350,0.999999,0.00106236,-0.000220214,4.64848e-05,-5.57082e-05,0.00520235,5.7891e-05,0.015118,0.0380408,-0.000593136
22914359,0.999999,0.00109156,-0.00103384,4.71949e-05,-0.00107791,0.00353929,4.05138e-05,0.0481221,-0.00412103,-0.000342436
22922320,0.999998,0.000663514,-0.00172035,4.82831e-05,-0.000954285,0.00193955,2.6244e-05,0.0353344,-0.0249974,-0.00020557
22930370,0.999998,-7.12906e-05,-0.00204438,4.96977e-05,-0.00034624,0.000883713,1.54098e-05,0.0117034,-0.0215499,-0.00013829
22938358,0.999999,-0.000669717,-0.0015164,5.09206e-05,0.000154763,0.000558896,9.45412e-06,0.00287668,-0.00824275,-0.000132067
22946366,1,-0.00049967,-0.000737313,5.11595e-05,0.000341689,0.000745936,7.66878e-06,0.00562646,-0.00608615,-0.0001345
22954393,1,4.1076e-05,-0.000150621,5.10314e-05,0.000329307,0.00106994,8.02277e-06,0.0119051,-0.012297,-0.000129688
22962397,1,-0.000389998,-0.000830417,5.10976e-05,0.000259028,0.00134661,6.09625e-06,-0.00244702,-0.00122683,-9.5652e-05
22970462,1,0.000150288,-0.000245894,5.08578e-05,0.000195216,0.00153394,7.68753e-06,0.00961391,-0.0102441,-8.9593e-05
22978578,1,-0.000255936,-0.000941474,5.10362e-05,0.000147084,0.00164341,6.04386e-06,-0.00318467,-0.00117982,-6.90212e-05
22986546,1,0.000213532,-0.00030019,5.07388e-05,0.0001081,0.00169991,7.70952e-06,0.00995684,-0.00961544,-7.09682e-05
22994463,0.999999,-0.000209457,-0.000986055,5.09859e-05,7.46254e-05,0.00172679,6.09391e-06,-0.00328467,-0.000854416,-5.73889e-05
23002371,1,0.0002201,-0.000317073,5.06825e-05,4.73521e-05,0.0017402,7.63995e-06,0.00980684,-0.00907315,-6.33627e-05
23081883,0.999999,-0.000221905,-0.000991882,5.0945e-05,2.77917e-05,0.00174878,6.03151e-06,-0.00355672,-0.000356158,-5.34587e-05
23089602,1,0.000210402,-0.000324137,5.06446e-05,1.57852e-05,0.00175588,7.56455e-06,0.00940886,-0.00884242,-6.04387e-05
23097582,0.999999,-0.000237329,-0.00099573,5.09051e-05,9.746e-06,0.00176216,5.96257e-06,-0.00385462,-5.46706e-05,-5.21317e-05
23105652,1,0.000206361,-0.000335595,5.06005e-05,7.48015e-06,0.00176733,7.53083e-06,0.00904461,-0.00870982,-5.90156e-05
23113581,0.999999,-0.000238583,-0.00100752,5.08626e-05,7.08092e-06,0.00177118,5.93754e-06,-0.00415209,0.000104415,-5.15733e-05
23121582,1,0.000207817,-0.000349579,5.05505e-05,7.2836e-06,0.00177369,7.52054e-06,0.00874758,-0.00853728,-5.81115e-05
23129399,0.999999,-0.000234922,-0.0010246,5.08198e-05,7.54857e-06,0.00177515,5.93078e-06,-0.0044941,0.000272291,-5.13897e-05
23137382,1,0.000208998,-0.000365502,5.05005e-05,7.61681e-06,0.00177587,7.50889e-06,0.00842655,-0.00830552,-5.74082e-05
23145537,0.999999,-0.000231016,-0.00104094,5.07767e-05,7.54838e-06,0.00177618,5.92763e-06,-0.00483208,0.000451734,-5.14213e-05
23153672,1,0.000210106,-0.000380386,5.04508e-05,7.424e-06,0.00177627,7.49684e-06,0.00810833,-0.00807618,-5.68675e-05
23161561,0.999999,-0.000228221,-0.00105711,5.07341e-05,7.30324e-06,0.00177631,5.92198e-06,-0.0051817,0.000643009,-5.15656e-05
23169666,1,0.000210816,-0.000395351,5.04017e-05,7.1914e-06,0.00177632,7.48366e-06,0.00777928,-0.00784713,-5.63935e-05
23177845,0.999999,-0.000225458,-0.00107353,5.06916e-05,7.16081e-06,0.00177635,5.91644e-06,-0.00554014,0.00083016,-5.17618e-05
23249894,1,0.000211557,-0.000410311,5.03526e-05,7.12826e-06,0.00177637,7.47096e-06,0.00744979,-0.00762027,-5.595e-05
23257808,0.999999,-0.000221948,-0.00109052,5.06489e-05,7.11981e-06,0.0017764,5.9135e-06,-0.00590876,0.00100343,-5.19899e-05
23265884,1,0.000212427,-0.000425175,5.03036e-05,7.12568e-06,0.00177641,7.45876e-06,0.00712334,-0.00739492,-5.55302e-05
23273760,0.999999,-0.000217158,-0.00110771,5.06057e-05,7.13296e-06,0.00177642,5.91522e-06,-0.00628051,0.00115241,-5.22334e-05
23281839,1,0.000213671,-0.000439565,5.02543e-05,7.11183e-06,0.00177641,7.44783e-06,0.00680658,-0.00717597,-5.51424e-05
23289980,0.999999,-0.000210918,-0.00112522,5.0562e-05,7.1298e-06,0.00177641,5.92207e-06,-0.0066585,0.00127316,-5.24955e-05
23297819,1,0.00021499,-0.000453932,5.0205e-05,7.1141e-06,0.0017764,7.4373e-06,0.00649016,-0.00695864,-5.47694e-05
23305828,0.999999,-0.000202899,-0.00114428,5.05177e-05,7.10511e-06,0.0017764,5.9352e-06,-0.00706707,0.00135924,-5.27944e-05
23313756,1,0.000215938,-0.000469018,5.01561e-05,7.10401e-06,0.00177639,7.42538e-06,0.00615952,-0.00673421,-5.43984e-05
23321682,0.999999,-0.000191579,-0.001166,5.04724e-05,7.10467e-06,0.00177639,5.96012e-06,-0.00752778,0.00138028,-5.3139e-05
23329602,1,0.00021667,-0.00048475,5.01074e-05,7.07922e-06,0.00177638,7.41264e-06,0.00581618,-0.00650532,-5.40361e-05
23337576,0.999999,-0.000172392,-0.001192,5.04239e-05,7.09541e-06,0.00177638,6.00564e-06,-0.00807258,0.00124687,-5.3552e-05
23415939,1,0.000217664,-0.00050057,5.00585e-05,7.07991e-06,0.00177636,7.40094e-06,0.00547115,-0.00628178,-5.36909e-05
23423749,0.999999,-0.00012614,-0.00123042,5.03642e-05,7.07208e-06,0.00177636,6.16158e-06,-0.0088609,0.000583049,-5.41741e-05
23431742,1,0.000219513,-0.000516095,5.00087e-05,7.07129e-06,0.00177635,7.39223e-06,0.0051319,-0.00607504,-5.33762e-05
23439875,0.999999,0.000356106,-0.00131183,5.00877e-05,7.07405e-06,0.00177634,7.8587e-06,-0.0104924,-0.00863226,-5.95649e-05
23447813,1,0.000226962,-0.000529439,4.99514e-05,7.04717e-06,0.00177634,7.40339e-06,0.00483545,-0.00597789,-5.31677e-05
23455746,1,0.000577931,0.000182515,4.95788e-05,7.04454e-06,0.00177632,8.65285e-06,0.0187817,-0.0127402,-7.64129e-05
23463873,1,0.000228993,-0.000544442,4.9905e-05,7.04781e-06,0.00177632,7.39539e-06,0.00450645,-0.00577466,-5.28882e-05
23471768,1,0.000624066,0.000145546,4.95066e-05,7.02052e-06,0.00177631,8.80107e-06,0.0180219,-0.0134018,-7.58708e-05
23479771,1,0.00023092,-0.000558424,4.98579e-05,7.03899e-06,0.00177631,7.38699e-06,0.00419747,-0.00556949,-5.26315e-05
23487716,1,0.000643893,0.000119862,4.94455e-05,7.02122e-06,0.0017763,8.85614e-06,0.0174834,-0.0135476,-7.50953e-05
23495794,1,-0.000121265,0.00016456,5.55167e-05,0.00711948,0.0165487,-0.00155889,-0.0136511,-0.131277,-0.0230549
23572583,1,0.000650054,-0.000187908,5.46265e-05,0.0130256,0.000560152,0.000242368,0.105772,0.199839,0.0258767
23580306,0.999999,0.00140844,-0.000127557,5.38233e-05,-0.0102319,-0.00544709,0.000137254,1.58934e-05,0.108334,-0.000181139
23588319,1,0.000626757,7.30276e-05,5.93566e-05,-0.00549838,0.0132746,-0.00144676,-0.0765513,-0.24688,-0.0241874
23596292,0.999999,0.00113531,-0.000569378,5.85536e-05,0.00760457,0.000180033,0.000305129,0.0682126,0.0404342,0.0251882
23604390,0.999998,0.00187479,-0.00036239,5.70859e-05,-0.00962749,-0.00500648,0.000183495,-0.00205032,0.0258666,-0.000733492
23612456,0.999999,0.00114621,-0.000288451,5.54924e-05,0.0163516,0.00706405,0.000434612,-0.0168308,-0.17308,0.00164502
23620499,0.999998,0.00188357,-0.000526183,5.44641e-05,-0.00505844,-0.00503995,0.000261315,0.0422435,0.102446,-0.000819931
23628502,0.999999,0.00114945,-0.00041146,5.27969e-05,0.013651,0.00474111,0.000465482,-0.0130625,-0.111769,0.00163595
23636457,0.999998,0.00189402,-0.000564921,5.14591e-05,-0.00906639,-0.00612498,0.000287182,0.0268274,0.0881269,-0.00110105
23644317,0.999999,0.00115214,-0.000440973,4.97233e-05,0.0116378,0.00458663,0.000484945,-0.0212257,-0.150527,0.00133007
23652493,1,0.000352683,-0.000356481,5.48701e-05,-0.00199942,0.00873353,-0.00123294,-0.000188813,-0.0359517,-0.0246798
23660287,0.999999,0.00109503,-0.000616261,5.29263e-05,-0.00185854,-0.00491347,0.000432413,0.0540294,0.124497,0.0246136
23668443,1,0.000359097,-0.000399928,5.09057e-05,0.00839621,0.00160347,0.000565925,-0.0108089,-0.0609916,0.00131799
23729549,0.999999,0.00109878,-0.000420773,4.90645e-05,-0.0149775,-0.00774751,0.000364925,0.00991306,0.0608311,-0.00185587
23737452,1,0.000346635,-0.000303114,4.71499e-05,0.00914105,0.00433785,0.000528448,-0.0266733,-0.190062,0.00111532
23745468,1,-0.000460682,-0.000345506,5.22173e-05,-0.00182044,0.00877736,-0.00121164,0.00465914,-0.0389143,-0.0248475
23753451,1,0.000289894,-0.000592741,4.99706e-05,-0.000961869,-0.00496173,0.000457873,0.0627351,0.155928,0.0243095
23761477,1,-0.000393457,-0.000246891,4.80049e-05,0.00883227,0.00145152,0.000577204,-0.00125731,-0.0192994,0.00132668
23769431,1,0.000342018,-0.000296548,4.61943e-05,-0.0151601,-0.00793663,0.000379552,0.0159873,0.0960317,-0.00197526
23777447,1,-0.000412575,-0.000177005,4.42736e-05,0.00864697,0.00416737,0.000528677,-0.0229067,-0.166772,0.00136552
23785387,0.999999,-0.00122035,-0.00027797,4.92237e-05,-0.00230496,0.00865108,-0.00122166,0.00595909,-0.0247782,-0.0248095
23793458,1,-0.000467893,-0.000515055,4.68134e-05,-0.00128367,-0.00503759,0.00046725,0.0638139,0.166046,0.0240288
23801442,0.999999,-0.00108841,-5.94173e-05,4.50737e-05,0.00868552,0.00141509,0.000579646,0.00205733,-0.0106877,0.00134129
23809540,1,-0.000355008,-0.000124908,4.33254e-05,-0.0151868,-0.00794951,0.00038602,0.0192758,0.106148,-0.00213403
23817552,0.999999,-0.00111118,-1.24202e-05,4.13653e-05,0.00867465,0.0041669,0.00052627,-0.0194847,-0.154954,0.00159746
23879332,0.999998,-0.00188775,-0.000274749,4.59808e-05,-0.00226519,0.00865287,-0.00123252,0.00639492,-0.0124533,-0.0247746
23887149,0.999999,-0.00113032,-0.000498765,4.34107e-05,-0.00125421,-0.00503543,0.000474011,0.0645944,0.178885,0.0237847
23895155,0.999999,-0.00136873,0.000247673,4.21069e-05,0.00869976,0.00141574,0.000584286,0.00855055,-0.00524619,0.00134145
23903115,1,-0.000639635,0.000147933,4.05372e-05,-0.0151829,-0.00795058,0.000382192,0.0250787,0.111577,-0.00221133
23911125,0.999999,-0.00139905,0.000236417,3.83771e-05,0.00867181,0.00416601,0.000528306,-0.0141764,-0.149596,0.00169609
23919123,0.999998,-0.0020623,-0.000260876,4.24448e-05,-0.00226845,0.00865237,-0.0012352,0.00707659,-0.00944572,-0.0247592
23927155,0.999999,-0.0013044,-0.000484051,3.98409e-05,-0.00125746,-0.00503659,0.000475706,0.0652913,0.18183,0.0237087
23935249,0.999999,-0.0013561,0.00030695,3.86323e-05,0.00869745,0.001415,0.00058532,0.0101132,-0.00598601,0.00134066
23943068,1,-0.000628764,0.000197384,3.71018e-05,-0.0151833,-0.00795156,0.000380374,0.0264501,0.110873,-0.00221417
23951012,0.999999,-0.00138915,0.000278713,3.48944e-05,0.00867128,0.00416581,0.000529199,-0.0129456,-0.150262,0.00169746
23958991,0.999998,-0.00203863,-0.000237302,3.89154e-05,-0.00226764,0.00865339,-0.00123452,0.00794213,-0.010371,-0.0247478
23966960,0.999999,-0.00128206,-0.000464463,3.63282e-05,-0.00125724,-0.00503716,0.00047539,0.0660884,0.180929,0.023703
23974945,0.999999,-0.00141146,0.000313658,3.5119e-05,0.00869724,0.00141478,0.000585241,0.0106519,-0.00535236,0.00134156
23983089,0.999998,-0.00154456,0.00107983,4.0955e-05,-0.00796953,0.00686954,-0.00121309,0.0121964,-0.00424376,-0.0249528
24063362,0.999999,-0.00086747,0.000711213,3.91405e-05,-0.00535535,-0.00533109,0.000484806,0.0711456,0.112,0.0235355
24071214,0.999998,-0.00168073,0.000908723,4.38185e-05,-0.0114978,0.00812838,-0.00129007,-0.0326004,-0.12864,-0.0242487
24079215,0.999999,-0.00108437,0.000387147,4.16739e-05,-0.000115527,-0.00277471,0.000447573,0.0764289,0.0737694,0.0237671
24087120,0.999999,-0.00116646,-0.000412289,3.85103e-05,0.0129441,0.00239782,0.000553282,0.0161296,-0.00879657,0.00148516
24095096,1,-0.00040549,-0.000268816,4.31649e-05,-0.00536641,0.00692041,-0.00118982,-0.00157912,0.0223368,-0.024884
24103216,1,0.000332381,-0.000504133,4.09162e-05,-0.00497509,-0.0054928,0.000477064,0.0503649,0.12657,0.024008
24111263,1,-0.000450094,-0.000214082,4.61251e-05,-0.0121758,0.00800841,-0.00124876,-0.0557526,-0.142051,-0.0246506
24119254,1,0.000123894,-0.000758545,4.39837e-05,-0.000818645,-0.00283378,0.000438865,0.0517573,0.04238,0.0240576
24127248,0.999999,-0.000625231,-0.00081987,4.23951e-05,0.0126094,0.00239467,0.000543968,0.00644711,-0.0317807,0.00149581
24135238,1,-1.55531e-05,-0.000355904,4.69419e-05,-0.0053739,0.00695149,-0.00118421,-0.00408205,0.00549853,-0.0248609
24143298,1,0.000719801,-0.00060335,4.47386e-05,-0.00483161,-0.00545628,0.000472968,0.0484066,0.114677,0.0240946
24206686,1,-6.54566e-05,-0.0003219,4.989e-05,-0.0120198,0.00804126,-0.00124077,-0.0573984,-0.150293,-0.0247611
24214460,0.999999,0.000481473,-0.000891788,4.79126e-05,-0.000713943,-0.00281518,0.000436656,0.0497878,0.0361902,0.0240927
24222420,1,-0.00026817,-0.00091278,4.64344e-05,0.0126571,0.00240296,0.000543088,0.00526849,-0.0377714,0.00147477
24230401,1,0.000236263,-0.000337172,5.08605e-05,-0.0053638,0.00695538,-0.00118076,-0.00315481,0.00113836,-0.024849
24238507,0.999999,0.000966711,-0.00059783,4.87505e-05,-0.00484069,-0.00545787,0.000470044,0.0489943,0.109851,0.0241384
24246461,1,0.000177344,-0.00032687,5.38271e-05,-0.0120317,0.00804129,-0.0012372,-0.0570797,-0.155387,-0.0248248
24254463,0.999999,0.000691774,-0.000926502,5.20067e-05,-0.00072407,-0.00281703,0.000435511,0.0494997,0.031517,0.0240999
24262380,1,-5.79176e-05,-0.000941885,5.05546e-05,0.0126514,0.00240175,0.000543366,0.00508457,-0.0424786,0.00145926
24270497,1,0.000345291,-0.000291279,5.49304e-05,-0.00536467,0.00695645,-0.00117941,-0.00186776,-0.00155234,-0.0248409
24278518,0.999999,0.00107105,-0.000563603,5.28948e-05,-0.00484031,-0.00545835,0.000468463,0.0500676,0.107284,0.0241443
24286554,1,0.000278594,-0.000300688,5.79247e-05,-0.0120294,0.00804278,-0.00123664,-0.0561663,-0.157838,-0.0248432
24294678,0.999999,0.000772395,-0.000917777,5.6192e-05,-0.000723253,-0.00281734,0.000435054,0.0500817,0.0294773,0.0240933
24302819,1,2.22766e-05,-0.000941677,5.47391e-05,0.0126515,0.00240138,0.000543773,0.0054986,-0.0444955,0.00145316
24310847,1,0.000378559,-0.000263072,5.91007e-05,-0.00536372,0.00695746,-0.00117894,-0.000909,-0.00264768,-0.0248331
24378320,0.999999,0.000900605,-0.000860338,6.42171e-05,-0.0175075,0.0147041,-0.00122079,0.0277542,0.0216165,0.00320892
24386047,0.999999,0.000970276,0.000792913,6.67332e-05,-0.0233285,-0.217212,-0.00126755,-0.177749,0.0371689,-4.03156
24394122,1,0.000661993,-4.43998e-05,6.60527e-05,-0.0121174,0.0201017,0.000325964,0.610658,-0.215044,4.0548
24402236,1,-1.1657e-05,-0.000329358,6.57265e-05,0.00140984,-0.0347028,0.000161803,0.0698582,-0.105586,-0.000849104
24410113,1,0.00011992,0.000524673,6.52382e-05,0.00529934,-0.0152871,0.000112217,-0.340753,0.0419404,-0.00235478
24418108,0.999999,0.000490906,0.00123284,6.50338e-05,0.00309184,0.00185537,8.70112e-05,-0.187325,0.090164,-0.00142462
24426107,0.999998,0.00129231,0.00123507,6.58045e-05,0.000129176,0.00549922,6.62478e-05,0.00310528,0.0476263,-0.000950233
24434137,0.999999,0.00132075,0.000417666,6.67377e-05,-0.00127437,0.00418988,4.3801e-05,0.0721208,-0.00311736,-0.000736503
24442143,0.999999,0.00101369,-0.000333664,6.74943e-05,-0.00119998,0.00236532,2.80413e-05,0.0711679,-0.0329352,-0.000502553
24450291,0.999999,0.000514449,-0.000964833,6.82308e-05,-0.00048633,0.0010424,1.7406e-05,0.0434595,-0.0365036,-0.000300596
24458253,0.999999,-0.000176614,-0.00136994,6.90608e-05,0.000134181,0.000502019,1.08679e-05,0.0136614,-0.0208995,-0.000188334
24466380,0.999999,-0.000751014,-0.000815763,6.99155e-05,0.000384188,0.000587296,7.8199e-06,0.00814573,-0.00265283,-0.000164996
24527111,1,-5.55331e-05,-0.000418786,6.96242e-05,0.000381568,0.000905014,7.83743e-06,0.00770769,-0.0107036,-0.000148652
24534984,1,-0.000854263,-0.000446849,6.99315e-05,0.000295902,0.00122312,5.34813e-06,0.00454547,0.00813027,-0.000117845
24542844,1,-5.38895e-05,-0.000421673,6.95792e-05,0.000252167,0.00135372,7.16177e-06,0.00495192,-0.00617405,-9.97192e-05
24550817,0.999999,0.000556311,-0.000947532,6.92698e-05,0.000180811,0.00154628,8.66527e-06,-0.00470262,-0.0172574,-9.98525e-05
24558927,1,-6.31284e-05,-0.00044704,6.95476e-05,0.00010821,0.00169156,6.77766e-06,0.00634038,-0.00421465,-7.15657e-05
24566930,0.999999,0.00052721,-0.000994323,6.92266e-05,7.32189e-05,0.00172899,8.67119e-06,-0.00365031,-0.0153029,-7.23568e-05
24574976,1,-5.87699e-05,-0.000456687,6.94955e-05,4.63163e-05,0.0017446,6.6774e-06,0.0070564,-0.00364186,-5.91352e-05
24582917,0.999999,0.000555808,-0.000976078,6.9162e-05,2.75098e-05,0.0017517,8.77016e-06,-0.00318152,-0.0156533,-6.67614e-05
24590975,1,-5.05745e-05,-0.000460922,6.94368e-05,1.60647e-05,0.00175668,6.65209e-06,0.00679587,-0.00375868,-5.55803e-05
24599011,0.999999,0.000593611,-0.000944102,6.90932e-05,1.02511e-05,0.00176146,8.89565e-06,-0.00279851,-0.0163761,-6.58148e-05
24606859,1,-4.24919e-05,-0.00046521,6.93782e-05,7.95828e-06,0.00176608,6.65204e-06,0.00651616,-0.00384491,-5.41559e-05
24685958,0.999999,0.000628882,-0.000909842,6.90247e-05,7.43252e-06,0.00176998,9.01162e-06,-0.00224333,-0.0169217,-6.57364e-05
24693825,1,-3.53141e-05,-0.000470075,6.93208e-05,7.50581e-06,0.00177287,6.65761e-06,0.00636741,-0.00378006,-5.34194e-05
24701783,0.999999,0.00065973,-0.000876,6.89574e-05,7.65098e-06,0.0017747,9.10964e-06,-0.00159833,-0.0172869,-6.58133e-05
24709653,1,-2.87214e-05,-0.000474714,6.92637e-05,7.67018e-06,0.00177571,6.66379e-06,0.00626789,-0.00365637,-5.30126e-05
24717845,0.999999,0.000687422,-0.000841028,6.88909e-05,7.58286e-06,0.00177616,9.19414e-06,-0.000924734,-0.0175762,-6.60473e-05
24725665,1,-2.26336e-05,-0.000478727,6.92067e-05,7.45132e-06,0.00177633,6.66929e-06,0.00616825,-0.0035261,-5.27848e-05
24733522,0.999999,0.000711912,-0.000805052,6.88253e-05,7.33798e-06,0.00177635,9.2663e-06,-0.000247892,-0.0178112,-6.63648e-05
24741554,1,-1.7241e-05,-0.000482227,6.91498e-05,7.24649e-06,0.00177636,6.67289e-06,0.00606587,-0.00338918,-5.26347e-05
24749826,0.999999,0.000732676,-0.000769492,6.87608e-05,7.20378e-06,0.00177635,9.32531e-06,0.000413557,-0.0179769,-6.66529e-05
24757670,1,-1.27043e-05,-0.000485413,6.90934e-05,7.1838e-06,0.00177637,6.67366e-06,0.00596699,-0.00323663,-5.2512e-05
24765744,0.999999,0.000749691,-0.000735511,6.86977e-05,7.17612e-06,0.00177637,9.37117e-06,0.00104411,-0.0180684,-6.68596e-05
24773627,1,-9.00143e-06,-0.000488404,6.90374e-05,7.16517e-06,0.0017764,6.66435e-06,0.00587301,-0.00306652,-5.23991e-05
24781774,0.999999,0.000763552,-0.00070378,6.86358e-05,7.17992e-06,0.0017764,9.40575e-06,0.00163161,-0.0180974,-6.69898e-05
24852494,1,-5.81261e-06,-0.000491327,6.89818e-05,7.17181e-06,0.00177641,6.6679e-06,0.00578107,-0.00288593,-5.22823e-05
24860393,0.999999,0.000775187,-0.000674551,6.85747e-05,7.17045e-06,0.0017764,9.43245e-06,0.00217032,-0.0180823,-6.70652e-05
24868427,1,-2.6117e-06,-0.000494311,6.89263e-05,7.16652e-06,0.00177641,6.66411e-06,0.00568794,-0.00270555,-5.21762e-05
24876635,0.999999,0.000785006,-0.000647744,6.85142e-05,7.15677e-06,0.00177639,9.45267e-06,0.00266142,-0.0180317,-6.7091e-05
24884613,1,6.18839e-07,-0.000497336,6.88708e-05,7.15172e-06,0.00177639,6.66049e-06,0.00559386,-0.00252581,-5.20739e-05
24892552,0.999999,0.000792296,-0.000623106,6.84549e-05,7.14886e-06,0.00177637,9.4638e-06,0.0031099,-0.0179316,-6.70402e-05
24900495,1,2.83134e-06,-0.000500207,6.88159e-05,7.13852e-06,0.00177638,6.65329e-06,0.0055028,-0.00232603,-5.19717e-05
24908593,0.999999,0.000797388,-0.000600782,6.83965e-05,7.1347e-06,0.00177636,9.46714e-06,0.00351295,-0.0177884,-6.69157e-05
24916498,1,4.08583e-06,-0.000502961,6.87616e-05,7.13206e-06,0.00177637,6.6426e-06,0.00541401,-0.00210759,-5.18738e-05
24924464,1,0.000801063,-0.000580847,6.83388e-05,7.1219e-06,0.00177635,9.46544e-06,0.00386918,-0.0176173,-6.67397e-05
24932476,1,4.91816e-06,-0.00050567,6.87076e-05,7.11859e-06,0.00177635,6.63048e-06,0.00532612,-0.00188084,-5.17798e-05
24940438,1,0.000804169,-0.000563199,6.82815e-05,7.11519e-06,0.00177633,9.46161e-06,0.00418057,-0.0174351,-6.65429e-05
24948539,1,5.9724e-06,-0.000508375,6.86535e-05,7.10601e-06,0.00177634,6.61917e-06,0.00523832,-0.00165835,-5.16911e-05
24956415,1,0.00080671,-0.000547557,6.82245e-05,7.10133e-06,0.00177632,9.4558e-06,0.0044526,-0.0172419,-6.63212e-05
24964489,1,7.07605e-06,-0.000511038,6.85995e-05,7.09948e-06,0.00177633,6.60795e-06,0.00515134,-0.00143696,-5.16111e-05
25055856,1,0.000806916,-0.000533679,6.81688e-05,7.08845e-06,0.00177631,9.44169e-06,0.00469005,-0.0170028,-6.60132e-05
25063595,1,6.3031e-06,-0.000513557,6.85464e-05,7.08583e-06,0.00177631,6.59013e-06,0.00506718,-0.00117874,-5.1533e-05
25071558,1,0.000806925,-0.000521656,6.81133e-05,7.0817e-06,0.00177629,9.42677e-06,0.00489111,-0.0167599,-6.56943e-05
25079551,1,5.76657e-06,-0.000515982,6.84933e-05,7.07317e-06,0.0017763,6.57318e-06,0.00498487,-0.000925057,-5.14624e-05
25087534,0.999999,-0.000646112,-0.000811443,6.7815e-05,0.026729,0.0101685,0.000245032,0.0176173,-0.0478682,0.00309952
25095519,1,0.00013815,-0.000931017,6.62978e-05,-0.00108722,-0.00470518,0.000190363,0.0487325,0.241152,-0.000493616
25103495,1,0.000136084,-0.000117748,6.55638e-05,-0.0136183,-0.00375377,0.000124446,-0.0397564,-0.00193315,-0.000759757
25111423,1,-0.000590006,-6.3497e-05,6.41785e-05,0.0173711,0.0086336,0.000369426,-0.0169438,-0.198533,0.0024736
25119676,1,0.000161849,-0.000412334,6.26929e-05,0.00760452,0.000180601,0.000307031,0.0744195,0.137238,-0.00128265
25127535,1,-0.000498117,-8.17086e-05,6.12122e-05,0.0148174,0.00491833,0.000438782,0.00316382,-0.0102078,0.00108568
25135511,1,0.000253701,-0.000208133,5.98759e-05,-0.00874785,-0.0059684,0.00028807,0.0297867,0.121703,-0.00138202
25143791,1,-0.000486544,-7.91206e-05,5.8138e-05,0.0116692,0.00475436,0.000469699,-0.0171275,-0.122876,0.00183752
25151625,0.999999,-0.00129286,-6.0862e-05,6.32466e-05,-0.00192059,0.00887739,-0.00126899,0.00411238,-0.00950811,-0.0245751
25159906,1,-0.000542118,-0.000300513,6.10747e-05,-0.00168806,-0.00479649,0.000443924,0.0598394,0.153388,0.0241426
25167900,0.999999,-0.00127891,6.48053e-05,6.65706e-05,-0.0106685,0.00822272,-0.00128957,-0.0519813,-0.103348,-0.0243113
25239417,1,-0.000614345,-0.000367558,6.43405e-05,-0.000536729,-0.00268161,0.000425063,0.0543474,0.0679556,0.0241006
25247210,0.999999,-0.00135045,-0.000530702,6.23639e-05,0.0125387,0.00253472,0.000536927,0.00699277,-0.0178784,0.00158581
25255256,1,-0.000654805,-0.000204317,6.72827e-05,-0.00536325,0.00706549,-0.00120396,-0.00533962,0.0144221,-0.0248925
25263235,1,8.69986e-05,-0.000431111,6.50376e-05,-0.00467923,-0.00535275,0.000474787,0.0483896,0.125873,0.0240342
25271156,1,-0.00066223,-0.00025153,6.30235e-05,0.00742716,0.0015652,0.000585465,-0.00837147,-0.0622812,0.0012842
25279299,1,7.27306e-05,-0.000315473,6.1147e-05,-0.0148598,-0.00778302,0.000390388,0.0154171,0.0766998,-0.00209398
25287216,1,-0.000679748,-0.000200113,5.92698e-05,0.00942074,0.00425885,0.000529757,-0.0212393,-0.161648,0.0014367
25295278,0.999999,-0.00146259,-0.000430381,6.41288e-05,-0.00177451,0.00867798,-0.00122315,0.00519027,-0.00899569,-0.0248392
25303104,1,-0.000701334,-0.000644159,6.15603e-05,-0.00113154,-0.0050531,0.000471211,0.0627262,0.18164,0.0239571
25311235,1,-0.000983505,8.50337e-05,5.99883e-05,0.00859701,0.00137959,0.000583322,0.00547368,-0.0063448,0.00132492
25319110,1,-0.000253012,2.55899e-06,5.83574e-05,-0.0153477,-0.00798368,0.000381075,0.0217179,0.106128,-0.00211782
25412067,0.999999,-0.00101154,0.00010336,5.62729e-05,0.00854208,0.00414159,0.000529376,-0.0175801,-0.157448,0.00156685
25419928,0.999998,-0.00178117,-0.00018259,6.07963e-05,-0.00233976,0.008639,-0.00123099,0.00775369,-0.0158413,-0.0247813
25427965,0.999999,-0.00102677,-0.00041502,5.83099e-05,-0.00128025,-0.00504037,0.000472947,0.0658418,0.17577,0.0238162
25435965,0.999999,-0.00143978,0.000242479,5.68825e-05,0.00870194,0.0014153,0.000584115,0.00814488,-0.00440261,0.00134294
25444013,1,-0.000709958,0.000145898,5.5301e-05,-0.015171,-0.00794835,0.000383515,0.0248046,0.112875,-0.00222639
25451858,0.999999,-0.00146886,0.000236511,5.31527e-05,0.00868389,0.00416735,0.000527737,-0.0143592,-0.148031,0.00171548
25459959,0.999998,-0.00211029,-0.00028811,5.7156e-05,-0.00226097,0.00865274,-0.00123607,0.0063705,-0.00820067,-0.0247638
25468161,0.999999,-0.00135111,-0.00050752,5.45261e-05,-0.00125422,-0.00503588,0.000476269,0.0646479,0.183062,0.0236991
25475862,0.999999,-0.00131278,0.000287713,5.33177e-05,0.00869799,0.00141477,0.000585139,0.00955438,-0.00656541,0.00134021
25483880,1,-0.000585056,0.000180827,5.17817e-05,-0.0151844,-0.00795104,0.00038026,0.0259338,0.110244,-0.00220255
25491823,0.999999,-0.00134524,0.000264286,4.95845e-05,0.0086704,0.00416534,0.00052928,-0.0134174,-0.150929,0.00168266
25499919,1,-0.000631879,-8.07945e-05,4.75199e-05,-0.000723896,-0.00281369,0.000441633,0.0666542,0.117489,-0.00236446
25570848,1,6.86736e-05,-0.000437586,4.53514e-05,-0.00125764,-0.00503815,0.000461736,0.026909,0.0343229,0.000242499
25578742,1,-0.000656281,-0.000192333,4.33677e-05,0.00869787,0.00141391,0.000578597,0.000531131,-0.0199841,0.00132807
25586618,1,7.75502e-05,-0.000255248,4.15643e-05,-0.0151826,-0.0079523,0.000382811,0.0177862,0.0967549,-0.0020492
25594678,1,-0.000678338,-0.000142991,3.96478e-05,0.00867152,0.00416484,0.000527842,-0.0210049,-0.164468,0.00146133
25602565,0.999999,-0.00147772,-0.000302239,4.45153e-05,-0.00226734,0.0086553,-0.00122435,0.00688415,-0.0216069,-0.024758
25610585,1,-0.000724824,-0.000538545,4.2016e-05,-0.0012572,-0.00503792,0.000469943,0.0648448,0.169707,0.0239015
25618595,0.999999,-0.00130751,-3.38468e-05,4.04277e-05,0.00869736,0.00141436,0.000579473,0.00404837,-0.00765532,0.00134573
25626646,0.999999,-0.00151739,0.000718734,4.61866e-05,-0.00797005,0.00687008,-0.0012068,0.00534412,-0.00503894,-0.0249412
25634785,1,-0.000825139,0.00037677,4.41749e-05,-0.00535499,-0.00533137,0.000487872,0.0647835,0.110901,0.0235838
25642729,0.999998,-0.00162803,0.000603577,4.91121e-05,-0.0114981,0.00812902,-0.00128243,-0.0383582,-0.129933,-0.0242772
25650749,0.999999,-0.00101617,9.9482e-05,4.68516e-05,-0.000115341,-0.00277498,0.000447267,0.0709865,0.0721622,0.0238138
25658772,0.999999,-0.00118574,-0.000679819,4.38063e-05,0.012944,0.00239754,0.000546278,0.0110949,-0.00868283,0.00149371
25717814,1,-0.000447902,-0.00045387,4.83626e-05,-0.00536649,0.00692079,-0.00118826,-0.00498737,0.0229018,-0.0248821
25725588,1,0.000295349,-0.000672379,4.59634e-05,-0.00497491,-0.005493,0.000479096,0.0472702,0.127031,0.0240078
25733554,1,-0.000481205,-0.000369156,5.12933e-05,-0.0121755,0.00800889,-0.0012456,-0.0585742,-0.141705,-0.024653
25741750,1,0.000108032,-0.000897115,4.90465e-05,-0.000818608,-0.00283397,0.000439175,0.0492463,0.0424252,0.0240644
25749581,0.999999,-0.00064273,-0.000909193,4.75712e-05,0.0126092,0.00239442,0.000541631,0.00490829,-0.031702,0.00149883
25757541,1,-5.22761e-05,-0.000421784,5.21008e-05,-0.0053736,0.0069519,-0.00118388,-0.00515856,0.00595281,-0.0248571
25765543,1,0.000685237,-0.000663084,4.98355e-05,-0.00483155,-0.00545649,0.00047387,0.0474453,0.115089,0.0240849
25773512,1,-9.81293e-05,-0.00037723,5.50364e-05,-0.0120194,0.00804171,-0.00124014,-0.0582687,-0.149916,-0.0247514
25781816,0.999999,0.000455366,-0.000940847,5.30072e-05,-0.000713974,-0.00281536,0.000436874,0.0490368,0.0364368,0.0240897
25789562,1,-0.000294414,-0.000948991,5.15649e-05,0.0126568,0.00240271,0.000542053,0.00477156,-0.0375212,0.0014778
25797608,1,0.000207035,-0.000370416,5.59908e-05,-0.00536355,0.00695578,-0.00118063,-0.00359297,0.00144576,-0.0248447
25805570,0.999999,0.000938536,-0.000628291,5.38456e-05,-0.00484063,-0.00545808,0.000470592,0.0486087,0.110138,0.0241276
25868515,1,0.000149954,-0.000355403,5.89512e-05,-0.0120312,0.00804173,-0.00123716,-0.0574257,-0.155113,-0.0248135
25876304,0.999999,0.000667976,-0.000952049,5.70972e-05,-0.000724124,-0.00281721,0.000435686,0.0492109,0.0317184,0.0240948
25884302,1,-8.16958e-05,-0.000962961,5.56639e-05,0.0126511,0.0024015,0.000542728,0.00488452,-0.0422768,0.00146205
25892328,0.999999,0.00069527,-0.00111208,5.30319e-05,-0.00125769,-0.0050418,0.000456721,0.0442746,0.173695,-0.00186853
25900232,0.999999,0.00144579,-0.000871725,5.00956e-05,-0.00483991,-0.00545902,0.000467303,0.00442698,-0.00207497,0.000128142
25908332,1,0.000657938,-0.000598809,5.51998e-05,-0.0120297,0.00804403,-0.00122357,-0.0617888,-0.165521,-0.0249952
25916295,0.999999,-5.84072e-05,-0.00111605,6.10364e-05,-0.0133906,0.0173293,-0.00127423,0.0294901,-0.0431366,0.00322643
25924289,1,0.000220182,0.000470003,6.33466e-05,-0.0178799,-0.216315,-0.000949884,-0.157958,0.0803332,-4.03165
25932424,1,1.97787e-05,-0.000394435,6.23586e-05,-0.00969022,0.0200718,0.000286905,0.612037,-0.13249,4.05595
25940249,1,-0.000542975,-0.00081933,6.19226e-05,0.00127007,-0.0348927,0.00018425,0.0604931,-0.0590703,-0.000621822
25948369,1,-0.000394854,3.16389e-05,6.17904e-05,0.00430532,-0.0153984,0.000113891,-0.354168,0.0535114,-0.00270926
26017424,1,-5.98334e-05,0.000755066,6.18128e-05,0.00235818,0.00183739,7.54279e-05,-0.200571,0.0854506,-0.00168502
26025163,0.999999,0.000721713,0.000904379,6.22343e-05,-7.52561e-05,0.00554234,5.63548e-05,-0.00599897,0.0428047,-0.00101865
26033265,1,0.000773544,8.93332e-05,6.27333e-05,-0.00112555,0.00425643,3.83159e-05,0.064466,-0.00169834,-0.000700955
26041064,1,0.000515467,-0.000679475,6.32092e-05,-0.000943958,0.0024269,2.51252e-05,0.0641722,-0.0257864,-0.000424056
26049139,0.999999,7.27313e-05,-0.00135187,6.37938e-05,-0.000277013,0.0010887,1.56189e-05,0.0361392,-0.0265835,-0.000234402
26057150,0.999998,-0.00063035,-0.00173568,6.47324e-05,0.0002466,0.000534817,9.44129e-06,0.00689775,-0.00957511,-0.000163285
26065205,0.999999,-0.000529827,-0.000943502,6.50278e-05,0.00037132,0.000517702,8.58303e-06,0.00902204,-0.00644963,-0.000169602
26073146,1,-2.00415e-05,-0.000329023,6.48499e-05,0.000373901,0.000909446,7.76648e-06,0.0114194,-0.0112701,-0.000158496
26081295,0.999999,-0.000585228,-0.000900858,6.49986e-05,0.000275359,0.00122219,5.63298e-06,-0.00434345,0.00332128,-0.000114206
26089228,1,1.39857e-05,-0.000374631,6.47497e-05,0.000195075,0.00145967,7.19989e-06,0.00600249,-0.00716358,-9.5943e-05
26097210,0.999999,-0.000140674,-0.00116583,6.47945e-05,0.000141208,0.0016105,6.37249e-06,-0.0085571,-0.00329611,-8.05742e-05
26105131,1,6.05711e-05,-0.000397629,6.4647e-05,0.000102668,0.00169235,7.17307e-06,0.00743203,-0.00661434,-7.11109e-05
26113169,0.999999,-3.61957e-06,-0.0012022,6.46971e-05,7.17419e-05,0.00173044,6.78455e-06,-0.00780017,-0.00493294,-6.39706e-05
26121160,1,7.47506e-05,-0.000412787,6.45829e-05,4.67662e-05,0.00174609,7.13136e-06,0.0078682,-0.00624972,-6.09753e-05
26129234,0.999999,1.32129e-05,-0.00121824,6.46444e-05,2.84658e-05,0.0017529,6.84237e-06,-0.00796597,-0.00496393,-5.81657e-05
26179452,1,7.47527e-05,-0.000426992,6.4536e-05,1.68174e-05,0.00175745,7.08423e-06,0.00743273,-0.00615146,-5.71907e-05
26187124,0.999999,1.35339e-05,-0.00123263,6.45983e-05,1.06166e-05,0.00176188,6.83794e-06,-0.00848567,-0.00492926,-5.66102e-05
26195178,1,7.68911e-05,-0.00044106,6.44865e-05,7.99819e-06,0.00176625,7.06762e-06,0.00695969,-0.0061193,-5.55899e-05
26203036,0.999999,4.41893e-05,-0.00124753,6.4539e-05,7.30385e-06,0.00177003,6.93126e-06,-0.00889897,-0.00539146,-5.63853e-05
26211081,1,8.29485e-05,-0.000454681,6.44323e-05,7.32515e-06,0.00177286,7.07191e-06,0.0066352,-0.00604074,-5.47218e-05
26219135,0.999999,0.000102693,-0.00126175,6.44662e-05,7.5002e-06,0.00177469,7.12188e-06,-0.00919931,-0.00630494,-5.67849e-05
26227094,1,9.03214e-05,-0.000468328,6.43763e-05,7.56179e-06,0.00177571,7.08191e-06,0.0063579,-0.00593522,-5.41836e-05
26234985,0.999999,0.00018086,-0.00127165,6.43824e-05,7.52262e-06,0.00177617,7.38362e-06,-0.00940586,-0.00758481,-5.76962e-05
26243032,1,9.81615e-05,-0.00048267,6.43198e-05,7.41131e-06,0.00177634,7.09382e-06,0.00605598,-0.00583878,-5.38185e-05
26250972,0.999999,0.000286745,-0.00126765,6.42817e-05,7.31537e-06,0.00177636,7.74456e-06,-0.00935586,-0.0094154,-5.91691e-05
26259117,1,0.000106407,-0.00049517,6.42623e-05,7.21874e-06,0.00177636,7.10751e-06,0.00577732,-0.00575716,-5.35642e-05
26267058,0.999999,0.000435112,-0.00123179,6.41538e-05,7.1795e-06,0.00177636,8.25709e-06,-0.00868841,-0.0120835,-6.146e-05
26275161,1,0.000115019,-0.00050567,6.42035e-05,7.14938e-06,0.00177637,7.12269e-06,0.00553503,-0.0056844,-5.33718e-05
26283208,0.999999,0.000628808,-0.00112703,6.3991e-05,7.14467e-06,0.00177638,8.93169e-06,-0.00666952,-0.0156403,-6.48986e-05
26291132,1,0.000123467,-0.000513956,6.41437e-05,7.13744e-06,0.0017764,7.1375e-06,0.00533717,-0.00560757,-5.32131e-05
26366038,0.999999,0.00081568,-0.00092482,6.38144e-05,7.14511e-06,0.00177639,9.57613e-06,-0.0027385,-0.0190626,-6.90662e-05
26373845,1,0.000129964,-0.000519899,6.40844e-05,7.13352e-06,0.00177641,7.14545e-06,0.00518595,-0.00549179,-5.30631e-05
26381995,0.999999,0.000912632,-0.000693395,6.36757e-05,7.13256e-06,0.0017764,9.91608e-06,0.00176596,-0.0207209,-7.22042e-05
26389899,1,0.000132122,-0.000524822,6.40278e-05,7.12892e-06,0.00177641,7.13793e-06,0.00505482,-0.00529094,-5.28835e-05
26397829,0.999999,0.000932338,-0.000526297,6.35838e-05,7.11718e-06,0.00177638,9.97342e-06,0.00500862,-0.0208641,-7.36261e-05
26405991,1,0.00013218,-0.00053059,6.39734e-05,7.11438e-06,0.00177639,7.123e-06,0.00490696,-0.00504895,-5.26806e-05
26413806,0.999999,0.000924264,-0.000420274,6.35144e-05,7.10811e-06,0.00177637,9.93111e-06,0.00705331,-0.0204627,-7.40385e-05
26421803,1,0.00013148,-0.000537259,6.39204e-05,7.10119e-06,0.00177638,7.1054e-06,0.00474139,-0.00479206,-5.2469e-05
26490525,1,0.000909458,-0.000352352,6.3454e-05,7.09322e-06,0.00177636,9.8644e-06,0.0083507,-0.0199292,-7.39589e-05
26498311,1,0.00013054,-0.00054458,6.38682e-05,7.09474e-06,0.00177637,7.08685e-06,0.00456305,-0.00453059,-5.2261e-05
26506456,1,0.000893051,-0.000307786,6.3398e-05,7.08005e-06,0.00177634,9.79169e-06,0.00919001,-0.0193642,-7.35764e-05
26514450,1,0.000128274,-0.000552737,6.38174e-05,7.08132e-06,0.00177635,7.06364e-06,0.0043683,-0.00424307,-5.20439e-05
26522452,1,0.000877233,-0.000278604,6.33443e-05,7.0732e-06,0.00177633,9.72078e-06,0.00972761,-0.0188109,-7.3019e-05
26530408,1,0.000125179,-0.000561559,6.37676e-05,7.06883e-06,0.00177634,7.0375e-06,0.00416053,-0.00393919,-5.18256e-05
26538502,1,0.000863004,-0.000259499,6.32916e-05,7.05932e-06,0.00177632,9.65544e-06,0.0100676,-0.0182888,-7.23746e-05
26546462,1,0.000122304,-0.000570568,6.3718e-05,7.06239e-06,0.00177633,7.01205e-06,0.00394908,-0.00363977,-5.16234e-05
26554598,1,0.000851892,-0.000246436,6.32384e-05,7.04648e-06,0.00177631,9.6011e-06,0.010289,-0.0178277,-7.17542e-05
26562446,1,0.00012082,-0.000579143,6.3668e-05,7.04881e-06,0.00177631,6.99162e-06,0.00374614,-0.0033676,-5.14467e-05
26570325,1,0.000841283,-0.000238218,6.31859e-05,7.0398e-06,0.00177629,9.5484e-06,0.0104155,-0.0173766,-7.10789e-05
26578371,1,0.000118422,-0.000588255,6.36188e-05,7.03623e-06,0.0017763,6.96796e-06,0.0035327,-0.00307741,-5.1271e-05
26586575,0.999999,-0.000541553,-0.00085717,6.30289e-05,0.0267289,0.0101687,0.000244698,0.0166843,-0.0498628,0.00309055
26659762,0.999999,0.00028254,-0.00106938,6.13425e-05,0.0130261,0.000560349,0.000218735,0.081649,0.274969,-0.000564396
26667542,1,2.57804e-05,-0.000347309,6.70679e-05,-0.0064803,0.0110341,-0.00142538,-0.0425759,-0.0195255,-0.0159847
26675472,0.999999,0.000697092,-0.000801359,6.55513e-05,0.0034052,-0.000945297,0.000320607,0.043905,0.0494497,0.024996
26683680,1,-4.26735e-05,-0.000487068,7.11888e-05,-0.00510049,0.00969116,-0.00133024,-0.0503863,-0.116919,-0.0240571
26691573,0.999999,0.000680521,-0.000835603,6.93372e-05,0.00185495,-0.00233906,0.000365989,0.0438512,0.0711105,0.0247381
26699751,1,-5.79743e-05,-0.000505749,7.4875e-05,-0.00657071,0.00931469,-0.00130213,-0.0519532,-0.114569,-0.0243185
26707561,0.999999,0.000652765,-0.000875696,7.29227e-05,0.00139638,-0.00241601,0.000387635,0.0483177,0.0739381,0.0245885
26715377,1,-8.20083e-05,-0.000735711,7.14259e-05,0.0127374,0.00263193,0.000520122,0.000587846,-0.0290588,0.00164429
26723416,1,2.05886e-05,2.57972e-05,7.62289e-05,-0.00569751,0.00717742,-0.00120983,-0.00458349,-0.00405068,-0.0248058
26731515,1,0.000742125,-0.000255911,7.43727e-05,-0.00484732,-0.00522953,0.000459667,0.0489819,0.100869,0.0241962
26739477,1,-5.03261e-05,3.14505e-06,7.93082e-05,-0.011712,0.00822264,-0.00125142,-0.0553832,-0.157772,-0.0247738
26747587,1,0.000485781,-0.000580151,7.75371e-05,-0.000297855,-0.00267092,0.000431559,0.0527231,0.0369599,0.0241714
26755689,1,-0.000259476,-0.0006709,7.58383e-05,0.0129917,0.0024963,0.000545988,0.00738972,-0.0321261,0.00148543
26763683,1,0.000370114,-0.000232759,8.02903e-05,-0.00518151,0.00700078,-0.00118434,-0.00365553,0.00582624,-0.0248943
26849179,0.999999,0.00110497,-0.000482488,7.82979e-05,-0.0047749,-0.00542873,0.000467073,0.0485042,0.113836,0.0242801
26856958,1,0.000318208,-0.000204751,8.32294e-05,-0.0120425,0.00804369,-0.00123538,-0.0575934,-0.152832,-0.0249291
26864865,0.999999,0.000845505,-0.000792791,8.15562e-05,-0.000750795,-0.00281171,0.000433913,0.0489847,0.032732,0.0241866
26872904,1,9.58106e-05,-0.000798721,7.99832e-05,0.012628,0.00240304,0.000547321,0.00467733,-0.0419471,0.00143983
26880997,1,0.00049945,-0.000148648,8.43247e-05,-0.00538568,0.00695048,-0.00118151,-0.00230916,-0.00126994,-0.0249031
26888964,0.999999,0.00122638,-0.00041797,8.24424e-05,-0.00484704,-0.00545262,0.000466038,0.049659,0.107569,0.0242686
26897035,1,0.000434623,-0.000153168,8.73047e-05,-0.0120371,0.00803761,-0.00123447,-0.0564629,-0.157521,-0.0249574
26905100,0.999999,0.000933486,-0.000766241,8.57436e-05,-0.000719461,-0.00281284,0.000433782,0.0498207,0.0298423,0.0241733
26912977,1,0.000183461,-0.000786514,8.41596e-05,0.0126581,0.00240358,0.000548303,0.00533364,-0.0440842,0.00143113
26920912,1,0.000550101,-0.000113737,8.84679e-05,-0.00536571,0.00695203,-0.0011807,-0.00117527,-0.00240156,-0.0248958
26990631,0.999999,0.00127382,-0.000391059,8.66329e-05,-0.00483943,-0.00545359,0.000465266,0.0506399,0.10649,0.0242628
26998477,0.999998,0.00188279,7.83944e-05,8.42766e-05,-0.0151834,-0.00795077,0.000343414,-0.0030275,0.00847189,-0.00170505
27006591,0.999999,0.00108047,4.61941e-05,8.2557e-05,-0.000723085,-0.0028144,0.000431836,0.0106239,-0.103848,-0.000126461
27014462,1,0.000365195,-0.00019539,8.05221e-05,0.0126539,0.00240237,0.000564185,0.017336,-0.0480953,0.00140125
27022515,1,0.000880212,0.000371713,8.49483e-05,-0.00536622,0.0069531,-0.00118097,0.00872238,-0.00934043,-0.0248959
27030551,0.999999,0.00157455,3.04201e-05,8.36351e-05,-0.00484085,-0.00545477,0.000457813,0.0593323,0.100086,0.0242645
27038429,1,0.000765666,0.000247262,8.8149e-05,-0.0120339,0.00803928,-0.00123955,-0.0478011,-0.164721,-0.0250022
27046493,1,0.00056371,-0.000534126,8.65396e-05,0.00867269,0.00416289,0.00053123,0.0530479,-0.0216478,0.050259
27054543,0.999999,0.000708302,-0.0013393,8.47219e-05,0.0126549,0.00240164,0.000536904,0.0108771,-0.00626987,0.000269428
27062457,0.999998,0.00149112,-0.00146039,8.19146e-05,-0.00125652,-0.00503917,0.000449834,0.0352284,0.160606,-0.00155228
27070663,0.999998,0.00176256,-0.000693342,7.8459e-05,-0.00484002,-0.00545561,0.00046267,0.00572785,-0.00579467,0.000137593
27078613,0.999999,0.00100542,-0.000545832,7.63881e-05,0.00721959,0.00148822,0.000588504,-0.0124852,-0.0957656,0.000999416
27086620,0.999998,0.00173974,-0.000608484,7.44655e-05,-0.0150207,-0.00783417,0.000374013,0.0110601,0.0408526,-0.00191696
27094569,0.999999,0.000986411,-0.000499559,7.25884e-05,0.00932939,0.00422947,0.000539581,-0.025745,-0.198129,0.000822734
27156511,1,0.000178084,-0.000538151,7.77601e-05,-0.00180265,0.00867375,-0.00119201,0.00454224,-0.0445372,-0.0248835
27164332,0.999999,0.000925592,-0.000793303,7.55394e-05,-0.00112878,-0.0050613,0.000455308,0.0613847,0.146853,0.0244532
27172217,1,0.000171392,-0.000499672,8.05366e-05,-0.00536679,0.00692164,-0.00117983,-0.0684725,-0.171892,-0.0476355
27180311,0.999999,0.000891839,-0.00064278,7.8593e-05,-0.015333,-0.00798682,0.000382125,0.0260008,0.0859915,0.0155257
27188263,1,0.000139507,-0.000512699,7.68573e-05,0.00854873,0.004139,0.000528773,-0.0279358,-0.181807,0.00115928
27196428,1,-0.000669248,-0.000514626,8.20669e-05,-0.00233502,0.00864547,-0.00120862,0.00298164,-0.0393914,-0.024791
27204496,1,8.11217e-05,-0.000759238,7.96243e-05,-0.00128061,-0.00504425,0.000462512,0.0608029,0.152115,0.0241724
27212260,1,-0.000602907,-0.000411901,7.78536e-05,0.00869968,0.00141189,0.000574951,-0.00297888,-0.022721,0.00132531
27220178,1,0.000133508,-0.000453184,7.58821e-05,-0.015171,-0.00795167,0.000387671,0.0147591,0.0943881,-0.00203976
27228324,1,-0.000620217,-0.000329474,7.41177e-05,0.00868149,0.00416487,0.000525267,-0.023756,-0.166615,0.00144007
27236335,0.999999,-0.00142828,-0.000417199,7.91799e-05,-0.00225928,0.00865839,-0.00122213,0.0055468,-0.0234899,-0.0247333
27244343,1,-0.000674579,-0.000650968,7.66102e-05,-0.00125479,-0.00503889,0.000469625,0.0635429,0.167793,0.0239065
27252380,0.999999,-0.0012629,-0.000154324,7.50678e-05,0.00869685,0.00141274,0.000577426,0.00259103,-0.00948461,0.00134699
27260369,1,-0.0005297,-0.000222172,7.32159e-05,-0.0151832,-0.00795331,0.000390996,0.0197332,0.107209,-0.00218351
27268368,0.999999,-0.00128611,-0.000111049,7.13592e-05,0.00866881,0.00416392,0.000523537,-0.0190717,-0.154012,0.00166616
27276457,0.999998,-0.00205642,-0.000394589,7.59791e-05,-0.00226639,0.00865689,-0.00123276,0.00637442,-0.0117724,-0.0246992
27334808,0.999999,-0.00129876,-0.000617916,7.32747e-05,-0.00125813,-0.00503917,0.000475774,0.0645852,0.179484,0.0236744
27342482,0.999999,-0.00150064,0.000140955,7.21297e-05,0.00869577,0.00141281,0.000581834,0.00877769,-0.00535613,0.00134794
27350536,1,-0.000771799,3.97525e-05,7.04488e-05,-0.0151821,-0.00795365,0.000386736,0.0252712,0.111462,-0.00225083
27358587,0.999999,-0.00153137,0.000127185,6.83921e-05,0.0086692,0.00416425,0.000525692,-0.0139943,-0.149658,0.0017518
27366407,0.999998,-0.00219213,-0.000373711,7.24599e-05,-0.00226507,0.00865766,-0.00123483,0.00719005,-0.009563,-0.0246845
27374530,0.999999,-0.00143443,-0.000597486,6.9735e-05,-0.00125781,-0.00503955,0.000477044,0.0654008,0.181702,0.0236117
27382444,0.999999,-0.0014954,0.000192476,6.86494e-05,0.00869539,0.00141251,0.000582703,0.0101963,-0.00590521,0.00134737
27390388,0.999998,-0.00167509,0.00095221,7.45391e-05,-0.00796638,0.0068736,-0.00121158,0.0116108,-0.00388585,-0.0249035
27398644,0.999999,-0.000996286,0.000586688,7.25882e-05,-0.00535558,-0.00533346,0.000486934,0.0706229,0.112315,0.023468
27406608,0.999997,-0.00113008,0.00224913,7.5509e-05,-0.0174195,-0.215945,-0.000475993,-0.302111,-0.0279541,-4.04998
27480614,0.999998,-0.00130266,0.00131782,7.30794e-05,-0.0125988,0.0351838,0.000273433,0.662575,-0.10876,4.04693
27488565,0.999999,-0.0015672,0.000668623,7.06605e-05,-0.00304296,-0.0275236,0.00030639,0.217565,-0.0755011,0.000876018
27496624,0.999998,-0.00144839,0.00152156,7.12523e-05,0.00217281,-0.0148028,0.000198397,-0.255474,0.0302945,-0.000553945
27504493,0.999997,-0.00105999,0.00222414,7.2438e-05,0.00243391,0.0008526,0.000111575,-0.172951,0.0894548,-0.000503031
27512436,0.999997,-0.000265289,0.00231906,7.40769e-05,0.000727369,0.00499612,6.87985e-05,-0.00713877,0.0765494,-0.000518536
27520548,0.999999,0.000181956,0.00163933,7.47871e-05,-0.000663369,0.00433826,4.376e-05,0.0663329,0.0358527,-0.000513172
27528550,1,0.000249548,0.000829824,7.49431e-05,-0.00105252,0.00288874,2.88527e-05,0.0753541,0.000455029,-0.00038759
27536538,1,7.89353e-05,4.01121e-05,7.4924e-05,-0.000713983,0.00165716,1.98435e-05,0.0555176,-0.0167323,-0.000232299
27544596,1,-0.000263365,-0.000687775,7.49142e-05,-0.000137668,0.000887245,1.34461e-05,0.0267036,-0.0161799,-0.000122721
27552453,0.999999,-0.000837183,-0.00124842,7.51253e-05,0.000311004,0.000648175,8.40854e-06,0.00138081,-0.00224789,-9.01368e-05
27619762,1,-0.000366837,-0.000603527,7.50571e-05,0.000445406,0.000867641,7.38798e-06,0.00526148,-0.00617228,-0.000100968
27627688,1,0.000294393,-0.000155372,7.48005e-05,0.000372169,0.00119731,8.33372e-06,0.0115363,-0.0155579,-0.000110706
27635479,1,-0.000325586,-0.000666793,7.50185e-05,0.000312401,0.00133371,6.21618e-06,0.00176648,-0.00207163,-8.27255e-05
27643507,1,0.000395499,-0.000322236,7.46306e-05,0.000176261,0.00158001,8.28108e-06,0.00955525,-0.0154807,-8.78522e-05
27651634,1,-0.000294748,-0.00073473,7.49873e-05,0.000151631,0.0016211,5.89193e-06,0.00217703,-0.00130623,-6.28923e-05
27659657,1,0.000417731,-0.000376627,7.45505e-05,0.000108251,0.00168433,8.28376e-06,0.00928336,-0.0145005,-7.30336e-05
27667606,1,-0.000293838,-0.000750938,7.49461e-05,8.50209e-05,0.00170485,5.77527e-06,0.00165634,0.000334949,-5.47157e-05
27675583,1,0.000407666,-0.00037291,7.45117e-05,6.13584e-05,0.0017211,8.22347e-06,0.00873971,-0.0129443,-6.56077e-05
27683529,1,-0.000304978,-0.000743057,7.48997e-05,4.01027e-05,0.00173596,5.72045e-06,0.0012214,0.00127104,-5.24377e-05
27691702,1,0.00039861,-0.000367894,7.44727e-05,2.41001e-05,0.00174905,8.19737e-06,0.00843109,-0.0124486,-6.31775e-05
27699738,1,-0.000313042,-0.000741041,7.48548e-05,1.41031e-05,0.00175949,5.68611e-06,0.001054,0.00152755,-5.13539e-05
27707785,1,0.000394093,-0.0003719,7.44279e-05,9.02282e-06,0.00176687,8.18567e-06,0.00828848,-0.0123182,-6.20594e-05
27715893,1,-0.000317166,-0.000746603,7.48117e-05,7.14449e-06,0.00177152,5.65787e-06,0.000952333,0.00168756,-5.07556e-05
27723844,1,0.000391661,-0.000379953,7.43805e-05,6.85666e-06,0.00177407,8.16951e-06,0.00815543,-0.0121248,-6.12782e-05
27731906,1,-0.000320695,-0.00075357,7.47691e-05,7.11924e-06,0.00177532,5.62841e-06,0.000829374,0.00195998,-5.0515e-05
27739918,1,0.000388634,-0.000388401,7.43336e-05,7.39306e-06,0.00177582,8.14477e-06,0.00798369,-0.0118275,-6.06067e-05
27747950,1,-0.00032443,-0.000758931,7.47263e-05,7.52509e-06,0.00177602,5.59877e-06,0.000701293,0.00228571,-5.04837e-05
27830863,1,0.000385144,-0.000396512,7.42873e-05,7.49736e-06,0.0017761,8.11706e-06,0.00779137,-0.0115046,-6.00187e-05
27838495,1,-0.000329458,-0.000763387,7.46839e-05,7.41445e-06,0.00177618,5.56555e-06,0.000576329,0.00263502,-5.05392e-05
27846574,1,0.000382408,-0.000404223,7.42409e-05,7.31086e-06,0.00177624,8.09213e-06,0.00760207,-0.0112046,-5.9511e-05
27854496,1,-0.000334767,-0.000767025,7.46415e-05,7.23378e-06,0.00177631,5.53164e-06,0.000468009,0.00298254,-5.06242e-05
27862612,1,0.00037997,-0.000412009,7.41943e-05,7.18316e-06,0.00177635,8.06843e-06,0.00741369,-0.0109149,-5.90348e-05
27870539,1,-0.000340378,-0.000769887,7.45992e-05,7.16961e-06,0.0017764,5.49657e-06,0.00037712,0.00333423,-5.07303e-05
27878530,1,0.000377171,-0.000420173,7.41482e-05,7.15332e-06,0.00177641,8.0434e-06,0.00721922,-0.0106179,-5.85593e-05
27886570,1,-0.000346091,-0.000771606,7.45568e-05,7.15981e-06,0.00177642,5.4612e-06,0.000309093,0.00368884,-5.08528e-05
27894498,1,0.00037445,-0.000428418,7.41021e-05,7.15736e-06,0.00177641,8.0185e-06,0.0070231,-0.0103216,-5.81001e-05
27959344,1,-0.000351418,-0.000771707,7.45139e-05,7.15642e-06,0.00177641,5.42725e-06,0.000272545,0.00403656,-5.09867e-05
27967124,1,0.000372518,-0.000436355,7.40557e-05,7.14923e-06,0.0017764,7.99646e-06,0.00683271,-0.0100405,-5.76735e-05
27975102,1,-0.000358662,-0.000771012,7.44718e-05,7.15179e-06,0.0017764,5.38642e-06,0.000251392,0.0044218,-5.11531e-05
27983300,1,0.000369199,-0.000444984,7.40104e-05,7.13652e-06,0.00177638,7.96952e-06,0.00662867,-0.00973217,-5.72214e-05
27991177,1,-0.000365761,-0.000768088,7.44292e-05,7.13713e-06,0.00177639,5.34621e-06,0.000273937,0.00480413,-5.13336e-05
27999180,1,0.00036681,-0.000453211,7.39647e-05,7.12913e-06,0.00177637,7.9458e-06,0.00643253,-0.00944225,-5.68083e-05
28007228,1,-0.000374062,-0.000763146,7.43867e-05,7.12385e-06,0.00177637,5.30179e-06,0.000336101,0.00521012,-5.15417e-05
28015326,1,0.000364083,-0.000461554,7.39194e-05,7.11537e-06,0.00177636,7.92094e-06,0.00623413,-0.0091457,-5.63993e-05
28023373,1,-0.000383368,-0.000755372,7.4344e-05,7.11725e-06,0.00177636,5.25375e-06,0.000453818,0.00563568,-5.17827e-05
28031410,1,0.000361373,-0.000469825,7.38742e-05,7.10297e-06,0.00177634,7.89616e-06,0.00603717,-0.00884939,-5.6003e-05
28039414,1,-0.000393153,-0.000743641,7.43005e-05,7.10363e-06,0.00177635,5.20413e-06,0.000649132,0.00607068,-5.20535e-05
28047407,1,0.000359283,-0.000477748,7.3829e-05,7.09664e-06,0.00177633,7.87352e-06,0.00584701,-0.00856536,-5.56365e-05
28109333,1,-0.000404501,-0.000727233,7.42564e-05,7.09089e-06,0.00177633,5.14904e-06,0.000936206,0.00653642,-5.23749e-05
28117177,1,0.000356712,-0.00048566,7.37843e-05,7.08312e-06,0.00177632,7.84922e-06,0.00565707,-0.00827187,-5.52734e-05
28125039,1,-0.000416104,-0.000703791,7.42104e-05,7.08411e-06,0.00177632,5.09307e-06,0.00136122,0.00700703,-5.27506e-05
28133292,1,0.000354884,-0.000493107,7.37394e-05,7.07057e-06,0.0017763,7.8276e-06,0.00547626,-0.00799285,-5.49382e-05
28141255,1,-0.00042667,-0.000670686,7.41609e-05,7.07011e-06,0.00177631,5.04098e-06,0.00197575,0.00745732,-5.31875e-05
28149204,0.999999,-0.00116583,-0.000511723,8.11026e-05,0.00711745,0.0165448,-0.00160302,-0.026881,-0.11083,-0.0228299
28157196,1,-0.000368371,-0.000805195,7.94531e-05,0.013026,0.000560239,0.00022515,0.0936198,0.219875,0.0255728
28165282,1,0.00038474,-0.000685955,7.81743e-05,-0.0102317,-0.00544617,0.000159838,-0.0109415,0.12842,-0.000429534
28173291,1,-0.000378024,-0.000436625,8.44015e-05,-0.00549983,0.0132716,-0.00146776,-0.0865134,-0.227215,-0.0237947
28181362,1,0.000257971,-0.00096033,8.27156e-05,0.00760486,0.000180335,0.000298874,0.0605172,0.0576936,0.0251529
28189292,0.999999,0.000987184,-0.000713279,8.10747e-05,-0.00962725,-0.00500558,0.000199145,-0.00893539,0.0432816,-0.000798684
28197389,1,0.000264496,-0.000596376,7.98519e-05,0.0163518,0.0070639,0.000412094,-0.0228676,-0.155776,0.00192275
28261625,0.999999,0.0010204,-0.000774575,7.8312e-05,-0.00505821,-0.00503907,0.000272537,0.0373641,0.119381,-0.000991595
28269476,1,0.000297057,-0.000603499,7.69203e-05,0.0136512,0.00474119,0.000452139,-0.0168279,-0.0950405,0.00180652
28277373,0.999999,0.00104985,-0.0007113,7.52346e-05,-0.0090662,-0.00612391,0.000300168,0.02395,0.10469,-0.00125635
28285431,1,0.000314523,-0.000556481,7.37196e-05,0.0116379,0.0045868,0.000474546,-0.0234882,-0.134089,0.00156331
28293349,1,-0.000457059,-0.000352946,7.90336e-05,-0.00199923,0.00873154,-0.00124718,-0.000120996,-0.0201022,-0.0246348
28301379,1,0.000295016,-0.000588736,7.68578e-05,-0.00185851,-0.0049125,0.000440172,0.0545615,0.140236,0.0243992
28309283,1,-0.000423714,-0.00032151,7.49732e-05,0.00839606,0.00160393,0.000564747,-0.0092704,-0.0456282,0.00140303
28317296,1,0.000314483,-0.000346701,7.31331e-05,-0.0149775,-0.00774609,0.00037487,0.0113605,0.0762183,-0.00196491
28325286,1,-0.000436958,-0.000224105,7.12752e-05,0.00914094,0.00433809,0.000523075,-0.0251182,-0.174684,0.0014052
28333346,0.999999,-0.00124365,-0.000306565,7.62844e-05,-0.00182015,0.00877546,-0.0012256,0.00541961,-0.0235888,-0.0247994
28341312,1,-0.00048755,-0.000537244,7.38615e-05,-0.000961848,-0.00496076,0.000465483,0.063816,0.171222,0.0240486
28349405,0.999999,-0.00100691,3.43172e-05,7.21537e-05,0.0088319,0.0014518,0.000580405,0.0042578,-0.00725757,0.00134213
28357323,1,-0.000274537,-4.1376e-05,7.04883e-05,-0.0151602,-0.0079353,0.000381612,0.0209849,0.10813,-0.00211056
28365425,0.999999,-0.00103186,6.45573e-05,6.84481e-05,0.00864668,0.00416746,0.000527673,-0.0181635,-0.154617,0.00157444
28373445,0.999998,-0.00179955,-0.000224855,7.29962e-05,-0.00230471,0.00864966,-0.00123199,0.00699659,-0.013439,-0.0247885
28461165,0.999999,-0.00104346,-0.000452336,7.04823e-05,-0.00128365,-0.00503679,0.000472886,0.0650367,0.177371,0.0238235
28469067,0.999999,-0.00138377,0.00024873,6.90973e-05,0.00868512,0.00141502,0.000584175,0.00810085,-0.00488555,0.00134275
28477080,0.999998,-0.00145039,0.00102185,7.49451e-05,-0.00797459,0.0068684,-0.00121184,0.00980717,-0.00499209,-0.0249799
28485048,0.999999,-0.000768577,0.000661644,7.31433e-05,-0.00535328,-0.00532779,0.000484616,0.0689133,0.111299,0.0236008
28493087,0.999998,-0.00157848,0.00086908,7.78356e-05,-0.0114973,0.00812748,-0.00128616,-0.0345791,-0.12932,-0.024313
28501113,0.999999,-0.000977246,0.000352902,7.57358e-05,-0.00011204,-0.00277265,0.000446943,0.0745215,0.0730662,0.023819
28509108,0.999999,-0.00108992,-0.000439835,7.26581e-05,0.0129473,0.00239817,0.000552887,0.0143702,-0.00888893,0.00148032
28517217,1,-0.000336292,-0.000266058,7.73156e-05,-0.00536729,0.00691853,-0.0011899,-0.00273914,0.0223864,-0.0249073
28525128,1,0.000403373,-0.000495816,7.50885e-05,-0.00497511,-0.00549048,0.000476513,0.0492908,0.126582,0.0240639
28533139,1,-0.000377268,-0.000201571,8.02587e-05,-0.0121789,0.00800648,-0.00124657,-0.0567055,-0.142109,-0.0247036
28541129,1,0.000201299,-0.000741183,7.81669e-05,-0.000818387,-0.00283237,0.000438354,0.0508618,0.0422432,0.0240937
28549264,1,-0.000548784,-0.00078495,7.65642e-05,0.0126106,0.00239463,0.000545168,0.00590776,-0.0319092,0.00148623
28557262,1,5.2536e-05,-0.000310545,8.11103e-05,-0.00537533,0.00694943,-0.00118476,-0.00441313,0.00553645,-0.0248857
28617708,1,0.000788541,-0.000556188,7.89605e-05,-0.0048316,-0.005454,0.000472075,0.0480937,0.114712,0.0241451
28625644,1,3.76327e-06,-0.000273587,8.40491e-05,-0.0120225,0.00803934,-0.0012395,-0.0576517,-0.150288,-0.0248091
28633507,0.999999,0.000552345,-0.000841922,8.21391e-05,-0.000713379,-0.00281374,0.000436142,0.0495317,0.0361815,0.0241249
28641621,1,-0.00019734,-0.000858614,8.06165e-05,0.0126586,0.00240294,0.000544753,0.00510738,-0.0377868,0.00146553
28649730,1,0.000304516,-0.000280688,8.50342e-05,-0.0053651,0.00695333,-0.00118142,-0.00326757,0.00117635,-0.0248734
28657600,0.999999,0.00103525,-0.00054061,8.29869e-05,-0.00484067,-0.00545559,0.000469056,0.0488798,0.109893,0.0241879
28665765,1,0.000246022,-0.000269262,8.7995e-05,-0.0120343,0.00803936,-0.00123616,-0.0571508,-0.15537,-0.0248715
28673826,0.999999,0.000761287,-0.000868243,8.62472e-05,-0.000723546,-0.00281559,0.000434992,0.0494088,0.0315352,0.0241311
28681700,1,1.15955e-05,-0.000882289,8.47444e-05,0.0126529,0.00240173,0.000545161,0.00503019,-0.0424684,0.00145003
28689679,1,0.000414365,-0.000231432,8.91021e-05,-0.00536597,0.0069544,-0.0011801,-0.0019146,-0.00153073,-0.0248651
28755429,0.999999,0.00114028,-0.000503379,8.71326e-05,-0.00484029,-0.00545607,0.000467439,0.0500122,0.107311,0.0241936
28763318,1,0.000347862,-0.000240325,9.20925e-05,-0.012032,0.00804085,-0.00123566,-0.0561833,-0.157833,-0.0248897
28771149,0.999999,0.000842127,-0.000857068,9.04342e-05,-0.000722729,-0.0028159,0.00043453,0.0500391,0.0294911,0.0241241
28779431,1,9.20076e-05,-0.000880405,8.89296e-05,0.012653,0.00240136,0.000545611,0.00547726,-0.0444897,0.00144389
28787272,1,0.000448319,-0.000201823,9.32685e-05,-0.00536501,0.00695541,-0.00117963,-0.000928283,-0.00263946,-0.0248572
28795350,0.999999,0.00117126,-0.000480998,9.13365e-05,-0.0048404,-0.00545667,0.000466784,0.050862,0.106249,0.0241846
28803288,1,0.000410057,-0.000360464,8.92212e-05,0.00721824,0.00148763,0.000589198,-0.00768076,-0.0853804,0.00111067
28811212,0.999999,0.00113987,-0.000461921,8.74019e-05,-0.0150202,-0.00783526,0.000378525,0.0150993,0.0513125,-0.00198617
28819229,1,0.000385607,-0.000362398,8.54995e-05,0.00932777,0.0042292,0.000537217,-0.021886,-0.187632,0.00106636
28827214,1,-0.000419055,-0.000471606,9.06027e-05,-0.00180097,0.00867508,-0.00120159,0.00700984,-0.0341487,-0.024808
28835330,1,0.000329647,-0.00072159,8.8258e-05,-0.00112921,-0.00506232,0.000461035,0.0639702,0.15726,0.0242263
28843251,1,-0.00037283,-0.000415226,8.63929e-05,0.00860908,0.00137484,0.000576373,-0.00150485,-0.0218386,0.00130832
28851319,1,0.000362533,-0.00046462,8.44384e-05,-0.0153323,-0.00798819,0.000384684,0.0154305,0.0908369,-0.00200235
28859397,1,-0.000392401,-0.000346916,8.26477e-05,0.00854705,0.00413877,0.000527389,-0.0235183,-0.17266,0.00136338
28928343,0.999999,-0.0012015,-0.000428958,8.77266e-05,-0.0023334,0.00864691,-0.00121719,0.00582238,-0.0302715,-0.0247231
28936108,1,-0.000451113,-0.000672166,8.51997e-05,-0.00128098,-0.00504534,0.000467527,0.0636922,0.161268,0.0239607
28944068,0.999999,-0.00111227,-0.000283114,8.35581e-05,0.00869833,0.0014113,0.000575641,0.00071549,-0.0140244,0.00134533
28952098,1,-0.00037824,-0.000342789,8.16256e-05,-0.0151703,-0.00795305,0.000392034,0.0180899,0.103119,-0.00215261
28960203,0.999999,-0.00113384,-0.000227137,7.98475e-05,0.00867988,0.00416462,0.000522954,-0.0205832,-0.157826,0.00161971
28968180,0.999998,-0.00192474,-0.000432188,8.46783e-05,-0.00225792,0.0086599,-0.00122962,0.00641824,-0.0150704,-0.0246809
28976268,0.999999,-0.00124669,-0.000811874,8.90488e-05,-0.0139249,0.0151152,-0.00131554,0.0446686,0.0890649,0.0031624
28984200,0.999999,-0.000939677,0.000753588,9.11464e-05,-0.0218558,-0.217294,-0.000443804,-0.172025,0.102351,-4.03178
28992317,0.999999,-0.0011625,-0.000107941,8.92474e-05,-0.012278,0.0199847,0.000248405,0.608801,-0.141132,4.05564
29000328,0.999998,-0.00176072,-0.000496956,8.78219e-05,0.000751756,-0.0347704,0.000279745,0.0644001,-0.0703694,-0.000506854
29008318,0.999999,-0.00158147,0.000348371,8.8566e-05,0.00483266,-0.0153015,0.000159705,-0.346426,0.0657001,-0.00263658
29016319,0.999999,-0.00115769,0.0010266,8.95076e-05,0.00296268,0.00187753,7.79371e-05,-0.192868,0.112748,-0.00182247
29024510,0.999999,-0.000358734,0.00106111,9.02274e-05,0.000216966,0.00553616,4.74464e-05,-0.000993445,0.0744226,-0.00115167
29032450,1,-4.65809e-05,0.000308283,9.01847e-05,-0.00112311,0.00422449,3.22796e-05,0.0698701,0.022154,-0.000745781
29102280,1,-0.000106153,-0.000500182,9.00471e-05,-0.00107661,0.00238957,2.27466e-05,0.0680794,-0.0102311,-0.000427096
29110098,0.999999,-0.0003758,-0.00125842,9.00415e-05,-0.000417641,0.00105558,1.54692e-05,0.0379377,-0.0176296,-0.000225268
29118172,0.999998,-0.00090888,-0.00185658,9.0447e-05,0.000157406,0.000507145,9.77369e-06,0.00429855,-0.00535118,-0.000159413
29126126,0.999999,-0.000603931,-0.00111859,9.05269e-05,0.000381739,0.000587916,7.66815e-06,0.00230552,-0.00485403,-0.000162725
29134085,1,-0.000208636,-0.000425634,9.04812e-05,0.0003701,0.000903893,7.49729e-06,0.00760505,-0.0074508,-0.000145335
29142088,1,0.000591414,-0.000376221,9.01269e-05,0.00028497,0.00122184,8.88756e-06,0.00592404,-0.020229,-0.000135872
29150043,1,-0.000205626,-0.000443767,9.04349e-05,0.000206761,0.00146051,6.587e-06,0.00470783,-0.00302786,-9.34219e-05
29158056,1,0.000584168,-0.000581404,9.00347e-05,0.000150176,0.00161072,8.90551e-06,0.0029965,-0.0175344,-9.26073e-05
29166238,1,-0.000212194,-0.000505584,9.04221e-05,0.000107987,0.0016917,6.25056e-06,0.00539959,-0.00124016,-6.77356e-05
29174012,1,0.000577736,-0.000649031,8.99719e-05,7.41458e-05,0.00172924,8.88946e-06,0.00311512,-0.0163178,-7.37718e-05
29181972,1,-0.000211664,-0.00051937,9.03782e-05,4.74072e-05,0.00174484,6.13296e-06,0.0058242,-0.00063955,-5.76422e-05
29190063,1,0.000582237,-0.000634894,8.99213e-05,2.82807e-05,0.00175186,8.87789e-06,0.00350968,-0.0161553,-6.76654e-05
29258877,1,-0.000208637,-0.000513302,9.03215e-05,1.6467e-05,0.00175676,6.0925e-06,0.0057679,-0.000640022,-5.42053e-05
29266728,1,0.000587496,-0.000611157,8.98724e-05,1.03632e-05,0.00176148,8.87902e-06,0.00373079,-0.0162402,-6.589e-05
29274722,1,-0.000206509,-0.000510364,9.02672e-05,7.9141e-06,0.00176608,6.07049e-06,0.00562867,-0.000615844,-5.2867e-05
29282864,1,0.000590591,-0.000597804,8.98224e-05,7.35333e-06,0.00176997,8.87954e-06,0.00387471,-0.0161617,-6.49593e-05
29290947,1,-0.00020515,-0.000511663,9.02161e-05,7.45192e-06,0.00177286,6.05374e-06,0.00554908,-0.000441628,-5.22031e-05
29298928,1,0.000592405,-0.000589829,8.97721e-05,7.61498e-06,0.00177469,8.87405e-06,0.004012,-0.0159594,-6.42535e-05
29306937,1,-0.000204057,-0.000513477,9.01655e-05,7.68047e-06,0.00177571,6.03964e-06,0.00550491,-0.00021053,-5.18737e-05
29315009,1,0.000593842,-0.000582351,8.97219e-05,7.60968e-06,0.00177616,8.86475e-06,0.00414643,-0.0157334,-6.37511e-05
29323094,1,-0.000202803,-0.000514436,9.01145e-05,7.47627e-06,0.00177633,6.0278e-06,0.00546529,1.53989e-05,-5.17342e-05
29331054,1,0.000595518,-0.000574862,8.96717e-05,7.36972e-06,0.00177635,8.85537e-06,0.00426463,-0.0155205,-6.33945e-05
29392282,1,-0.000201633,-0.000514769,9.00632e-05,7.28157e-06,0.00177636,6.01649e-06,0.00542502,0.000235285,-5.16769e-05
29400201,1,0.000597249,-0.000567981,8.96215e-05,7.21932e-06,0.00177635,8.84623e-06,0.00436359,-0.0153126,-6.30934e-05
29408151,1,-0.000200725,-0.00051481,9.00119e-05,7.21131e-06,0.00177637,6.00448e-06,0.00538783,0.00045892,-5.16521e-05
29416146,1,0.00059887,-0.00056197,8.95712e-05,7.20219e-06,0.00177637,8.837e-06,0.00444554,-0.0151025,-6.2796e-05
29424211,1,-0.000200405,-0.000514589,8.9961e-05,7.19144e-06,0.0017764,5.99042e-06,0.00535682,0.00069538,-5.16459e-05
29432216,1,0.000599946,-0.000556764,8.9521e-05,7.20402e-06,0.0017764,8.82583e-06,0.00451279,-0.0148807,-6.24831e-05
29440146,1,-0.000199823,-0.000514094,8.99098e-05,7.20113e-06,0.00177641,5.97747e-06,0.00533192,0.000927099,-5.16477e-05
29448140,1,0.000600426,-0.000552249,8.94712e-05,7.18479e-06,0.0017764,8.81247e-06,0.00456676,-0.0146467,-6.21558e-05
29456143,1,-0.0001993,-0.000513245,8.98586e-05,7.19373e-06,0.00177641,5.96427e-06,0.00531395,0.00115993,-5.16606e-05
29464172,1,0.000600643,-0.000548384,8.94215e-05,7.18473e-06,0.00177639,8.79827e-06,0.00460789,-0.0144078,-6.18194e-05
29472140,1,-0.000198777,-0.000512003,8.98072e-05,7.16825e-06,0.00177639,5.95103e-06,0.00530356,0.00139297,-5.16868e-05
29535538,1,0.000600913,-0.000545132,8.93717e-05,7.17469e-06,0.00177638,8.7842e-06,0.0046369,-0.0141701,-6.14857e-05
29543214,1,-0.00019818,-0.000510341,8.97556e-05,7.16807e-06,0.00177638,5.93818e-06,0.00530137,0.00162432,-5.17201e-05
29551286,1,0.000601409,-0.000542443,8.93218e-05,7.15013e-06,0.00177636,8.77088e-06,0.00465484,-0.0139366,-6.11614e-05
29559127,1,-0.000197479,-0.00050823,8.97039e-05,7.15911e-06,0.00177637,5.92566e-06,0.005308,0.00185353,-5.17634e-05
29567170,1,0.000602203,-0.000540268,8.92718e-05,7.1507e-06,0.00177635,8.75871e-06,0.00466274,-0.0137091,-6.08434e-05
29575205,1,-0.000196652,-0.000505634,8.96518e-05,7.13492e-06,0.00177635,5.91352e-06,0.00532415,0.00208057,-5.18196e-05
29583350,1,0.000603295,-0.000538556,8.92216e-05,7.14182e-06,0.00177634,8.74755e-06,0.00466154,-0.0134876,-6.05347e-05
29591389,1,-0.000195678,-0.000502521,8.95995e-05,7.13423e-06,0.00177634,5.90209e-06,0.00535045,0.00230454,-5.18822e-05
29599388,1,0.000604623,-0.000537259,8.91713e-05,7.12839e-06,0.00177632,8.73723e-06,0.00465222,-0.0132705,-6.02354e-05
29607208,1,-0.000194554,-0.000498855,8.95468e-05,7.12572e-06,0.00177633,5.89104e-06,0.00538759,0.00252554,-5.1958e-05
29615274,1,0.00060605,-0.000536333,8.9121e-05,7.12021e-06,0.00177631,8.71998e-06,0.00463562,-0.0130553,-5.99383e-05
29623468,1,-0.000193319,-0.000494588,8.94939e-05,7.10439e-06,0.00177632,5.87313e-06,0.00543652,0.00274446,-5.20445e-05
29631434,1,0.000607338,-0.000535738,8.90708e-05,7.10856e-06,0.0017763,8.71675e-06,0.00461254,-0.0128376,-5.96394e-05
29700017,1,-0.000191914,-0.000489671,8.94405e-05,7.10507e-06,0.0017763,5.8632e-06,0.00549821,0.00295998,-5.21406e-05
29707806,0.999999,-0.000821306,-0.000844733,8.86746e-05,0.0267289,0.0101675,0.000239696,0.0111224,-0.0241344,0.00205657
29715764,1,-3.62197e-05,-0.000960715,8.71057e-05,-0.0010871,-0.0047048,0.000192073,0.0481389,0.24458,-0.00057538
29723824,1,5.21879e-06,-0.000151521,8.64631e-05,-0.0136182,-0.0037532,0.000126352,-0.0404189,0.000641049,-0.00076227
29731894,1,-0.000720307,-9.36448e-05,8.5123e-05,0.017371,0.0086328,0.000366138,-0.0175317,-0.19597,0.00252393
29739989,1,2.6673e-05,-0.000328637,8.3859e-05,-0.00300092,-0.00447536,0.000246679,0.0487862,0.124488,-0.00107623
29747958,1,-0.000694243,-0.000165637,8.23877e-05,0.0148175,0.00491784,0.000434349,-0.0103734,-0.071379,0.00213514
29755789,1,5.87732e-05,-0.000279474,8.09568e-05,-0.00874769,-0.00596776,0.000291635,0.0283807,0.125534,-0.00142604
29764028,1,-0.000678621,-0.000138012,7.93096e-05,0.0116692,0.00475396,0.000466472,-0.0182807,-0.119101,0.0018819
29771823,0.999999,-0.00147666,-4.93509e-05,8.45288e-05,-0.00192043,0.00887693,-0.00127238,0.00433564,-0.00590435,-0.0245728
29779784,1,-0.00072479,-0.000285062,8.23204e-05,-0.00168798,-0.00479607,0.000445624,0.0601342,0.156988,0.0240845
29787789,0.999999,-0.00143513,2.30619e-06,8.05042e-05,0.00858479,0.0016836,0.000564752,-0.00276155,-0.0260483,0.00149416
29795801,1,-0.00067402,-0.000160153,7.83344e-05,-0.0047033,-0.00518659,0.000472656,0.0415022,0.147862,-0.00244289
29803889,0.999999,-0.00141015,2.95135e-05,7.65248e-05,0.00921498,0.00436207,0.000518327,-0.0155116,-0.0821633,0.000528487
29811889,0.999998,-0.00212209,-0.000384571,8.08595e-05,-0.00179858,0.00878193,-0.00124155,0.00393743,-0.00487973,-0.0247785
29879789,0.999999,-0.00133088,-0.000701357,7.77416e-05,0.0130409,0.00250853,0.000539338,0.0718345,0.154452,0.0502138
29887465,1,-0.000495857,-0.000752808,7.48442e-05,0.00881872,0.00145146,0.000567787,0.00858013,0.0576376,0.000113417
29895441,1,0.000243502,-0.000733154,7.26202e-05,-0.0151718,-0.00793539,0.000394302,0.00720122,0.0980964,-0.00198216
29903693,1,-0.000503267,-0.000574021,7.10594e-05,0.00864077,0.00416725,0.000520912,-0.0309124,-0.164943,0.00137364
29911772,0.999999,-0.00130376,-0.000486303,7.6412e-05,-0.00230766,0.00865109,-0.00122246,0.00166797,-0.0230734,-0.0248088
29919722,1,-0.00054548,-0.000705557,7.38403e-05,-0.00128286,-0.00503618,0.000468507,0.0598521,0.167701,0.0240321
29927773,0.999999,-0.00106615,-0.000134061,7.22609e-05,0.00868707,0.00141539,0.000578423,0.00039725,-0.0109507,0.00134102
29935861,1,-0.000331595,-0.000189459,7.0462e-05,-0.0151854,-0.00794781,0.000387677,0.0178129,0.105892,-0.00212551
29943825,0.999999,-0.00108666,-7.03628e-05,6.8554e-05,0.00867564,0.00416657,0.000525407,-0.020806,-0.155224,0.00158634
29951746,0.999998,-0.00187543,-0.000286746,7.327e-05,-0.00226492,0.00865256,-0.00123252,0.00596759,-0.0124829,-0.0247804
30025306,0.999999,-0.00111754,-0.000509285,7.06966e-05,-0.00125401,-0.00503482,0.000473929,0.0641813,0.178844,0.0237959
30033240,0.999999,-0.00135023,0.000239082,6.93854e-05,0.00869975,0.00141542,0.000584222,0.00818737,-0.00540634,0.00134129
30041248,1,-0.00062083,0.00014132,6.78139e-05,-0.015183,-0.00794931,0.000382176,0.0247486,0.111409,-0.0022057
30049258,0.999999,-0.00138007,0.00023128,6.56581e-05,0.00867187,0.00416544,0.000528323,-0.0144659,-0.149772,0.00168904
30057260,0.999998,-0.00205101,-0.00025492,6.97518e-05,-0.0022685,0.00865195,-0.00123529,0.00699741,-0.0094695,-0.0247652
30065233,0.999999,-0.00129303,-0.000477825,6.71559e-05,-0.0012573,-0.00503599,0.0004756,0.0652057,0.181807,0.0237172
30073232,0.999999,-0.00134592,0.000313019,6.59377e-05,0.00869755,0.0014147,0.00058549,0.010037,-0.00598723,0.00134034
30081254,0.999998,-0.00152918,0.00107236,7.16968e-05,-0.00797031,0.00686871,-0.00121322,0.0114517,-0.00389501,-0.0249665
30089094,0.999999,-0.000849932,0.000707626,6.98908e-05,-0.00535522,-0.0053297,0.000484858,0.0704607,0.112314,0.0235572
30097231,0.999998,-0.00166206,0.000908969,7.45677e-05,-0.0114991,0.00812753,-0.00128901,-0.033183,-0.128359,-0.0242705
30105277,0.999999,-0.00106288,0.000390554,7.24413e-05,-0.000115124,-0.00277393,0.000447433,0.0758817,0.0740069,0.0237848
30113384,0.999999,-0.00114071,-0.000409278,6.92952e-05,0.0129448,0.00239748,0.000553469,0.0155841,-0.00864683,0.00148261
30174766,1,-0.000381781,-0.000257072,7.396e-05,-0.00536697,0.0069195,-0.00119014,-0.00195052,0.0225273,-0.0248957
30182525,1,0.000356803,-0.00049033,7.1727e-05,-0.00497497,-0.00549141,0.000476822,0.0500209,0.126752,0.0240314
30190648,1,-0.000424966,-0.000198659,7.69138e-05,-0.0121771,0.00800762,-0.00124797,-0.0560375,-0.141895,-0.0246722
30198530,1,0.000151284,-0.000740761,7.47963e-05,-0.000818319,-0.00283297,0.000438646,0.0514942,0.0425006,0.0240732
30206572,1,-0.000598108,-0.000797175,7.31932e-05,0.01261,0.00239435,0.000544643,0.00628881,-0.0316589,0.00149181
30214604,1,1.07426e-05,-0.000332236,7.77441e-05,-0.00537442,0.00695058,-0.00118464,-0.00421933,0.00563782,-0.024873
30222430,1,0.000746442,-0.000578699,7.55661e-05,-0.0048315,-0.00545491,0.000472598,0.0482764,0.114814,0.0241172
30230505,1,-3.85503e-05,-0.000296595,8.06879e-05,-0.0120212,0.00804042,-0.00124026,-0.0574897,-0.150172,-0.024782
30238602,0.999999,0.000509693,-0.000865241,7.87402e-05,-0.00071359,-0.00281437,0.000436435,0.0496973,0.0362944,0.0241076
30246412,1,-0.000239989,-0.000884787,7.72388e-05,0.0126577,0.00240261,0.000543919,0.00521429,-0.0376701,0.0014708
30254481,1,0.000265477,-0.000310007,8.16633e-05,-0.00536441,0.00695446,-0.00118115,-0.00322373,0.00122033,-0.0248608
30262484,0.999999,0.00100525,-0.000693712,7.92415e-05,0.0086978,0.00141039,0.000574334,0.0557352,0.0879795,0.0503588
30270625,1,0.000257692,-0.000337065,8.42536e-05,-0.012033,0.0080406,-0.00123493,-0.023827,-0.0558334,-0.0173207
30278664,0.999999,0.000771021,-0.000938399,8.24788e-05,-0.0007237,-0.00281627,0.00043505,0.0486535,0.0306179,0.0241217
30358990,1,2.11268e-05,-0.000940822,8.10268e-05,0.012652,0.00240137,0.00054375,0.0045023,-0.0433752,0.00145122
30366901,1,0.000392854,-0.000271519,8.53787e-05,-0.00536517,0.00695559,-0.00117951,-0.00208126,-0.00182913,-0.0248527
30374880,0.999999,0.00111881,-0.000543245,8.33722e-05,-0.00484021,-0.005457,0.00046791,0.0498534,0.107005,0.0241719
30382839,0.999999,0.00172289,-6.58857e-05,8.09646e-05,-0.0151821,-0.00795459,0.000349532,-0.00367427,0.00910099,-0.00173276
30390997,1,0.000920265,-9.38729e-05,7.93437e-05,-0.000723571,-0.00281665,0.000432995,0.010066,-0.103186,-9.10739e-05
30399029,1,0.000203543,-0.00033118,7.73834e-05,0.0126515,0.00240107,0.000560067,0.0168707,-0.0473972,0.0014222
30407082,1,0.000729569,0.000225899,8.18263e-05,-0.00536325,0.00695723,-0.00117983,0.00805733,-0.00886047,-0.0248517
30415073,0.999999,0.00142603,-0.000111224,8.03478e-05,-0.0048406,-0.00545792,0.00046027,0.0587591,0.100512,0.0241751
30422988,1,0.000656853,-5.93251e-05,7.79951e-05,0.0072172,0.00148691,0.000594164,-0.00115684,-0.0909391,0.00106956
30430970,0.999999,0.00136809,-0.000244504,7.65294e-05,-0.0150197,-0.00783677,0.000368157,0.0199833,0.046113,-0.0019773
30439018,1,0.000610789,-0.000166714,7.44466e-05,0.00932657,0.00422879,0.000542852,-0.0174345,-0.192763,0.000991456
30447068,1,-0.000184674,-0.000338648,7.94386e-05,-0.00180014,0.00867705,-0.00119745,0.010228,-0.0394526,-0.0248115
30455040,1,0.00055689,-0.000608297,7.72618e-05,-0.0011293,-0.00506338,0.0004584,0.0668271,0.152062,0.0242615
30463040,0.999999,0.00128585,-0.000314734,6.97954e-05,0.00224784,0.0142909,0.00174686,-0.0210853,0.0451506,-0.0207704
30471041,0.999999,0.000895015,-0.00107126,6.42915e-05,-0.00438024,0.0119684,0.00165219,0.0683248,-0.0395168,0.00314812
30539560,0.999999,3.1525e-05,-0.00125685,6.31859e-05,-0.0203621,0.0885447,0.000447012,-0.0305139,-0.136951,0.0190441
30547359,0.999998,-0.000251293,-0.0019197,6.26036e-05,-0.00439392,-0.0230531,0.000242248,0.483265,-0.172981,0.00316682
30555156,0.999999,-0.000271881,-0.00100824,6.23011e-05,0.00447869,-0.0277619,0.000137568,-0.260544,-0.0191611,-0.00260902
30563366,1,-3.46421e-05,-0.000219057,6.19285e-05,0.00457079,-0.00467164,9.15339e-05,-0.317906,0.0855779,-0.00266983
30571460,1,0.000496203,0.000365469,6.15961e-05,0.00149514,0.00480968,6.96415e-05,-0.0977329,0.0829683,-0.00134619
30579401,0.999999,0.00111469,-0.000159398,6.1908e-05,-0.000786548,0.00506072,5.33882e-05,0.0304815,0.0258322,-0.000780404
30587424,0.999999,0.000951856,-0.000958057,6.26886e-05,-0.00136474,0.00324193,3.62742e-05,0.0577187,-0.0165144,-0.000477089
30595416,0.999999,0.000479315,-0.00161277,6.36735e-05,-0.000869763,0.00162415,2.2884e-05,0.0402312,-0.0315214,-0.000278595
30603314,0.999998,-0.00024004,-0.00196796,6.49494e-05,-0.000112256,0.000631282,1.31135e-05,0.0127487,-0.0219298,-0.000177557
30611500,0.999999,-0.000738971,-0.00134501,6.60495e-05,0.000374704,0.000394332,8.3548e-06,0.00449414,-0.00630295,-0.000163859
30619444,1,-0.000369676,-0.000636748,6.60542e-05,0.000479598,0.000662554,7.34326e-06,0.00584018,-0.00640662,-0.000156832
30682771,1,0.000196111,-7.21929e-05,6.58801e-05,0.00038612,0.00104148,8.06985e-06,0.012257,-0.0132023,-0.000144473
30690708,1,-0.000301813,-0.000704509,6.60125e-05,0.000264253,0.00134543,6.17777e-06,-0.000537441,-0.0016035,-0.000103065
30698759,1,0.000298685,-0.000179667,6.5728e-05,0.000178955,0.00154102,8.03356e-06,0.0107841,-0.0125797,-9.78963e-05
30706814,1,-0.000232832,-0.000785139,6.59765e-05,0.000128686,0.00164934,6.09472e-06,-4.52514e-05,-0.00155534,-7.10479e-05
30714788,1,0.000361806,-0.000255036,6.56133e-05,9.57635e-05,0.00170201,8.16685e-06,0.0109552,-0.0126536,-7.69637e-05
30722852,1,-0.000212212,-0.000820725,6.59361e-05,6.9305e-05,0.00172577,6.07593e-06,3.03315e-05,-0.000949535,-5.77964e-05
30730761,1,0.000363397,-0.000271513,6.55603e-05,4.68664e-05,0.00173771,8.11336e-06,0.0107141,-0.0119694,-6.80668e-05
30738936,1,-0.000221507,-0.000824409,6.58919e-05,2.95137e-05,0.00174623,6.02135e-06,-0.000304524,-0.000375733,-5.32729e-05
30746751,1,0.000350469,-0.000272045,6.5523e-05,1.78523e-05,0.00175396,8.04184e-06,0.0103734,-0.0115485,-6.454e-05
30754739,1,-0.000232107,-0.000827275,6.58482e-05,1.12585e-05,0.00176104,5.9718e-06,-0.000615354,-9.05071e-05,-5.16056e-05
30762814,1,0.000344269,-0.00027892,6.54791e-05,8.25142e-06,0.00176684,8.00984e-06,0.010094,-0.0113422,-6.28671e-05
30770760,1,-0.000235752,-0.000837392,6.58055e-05,7.5991e-06,0.00176916,5.93581e-06,-0.000875811,0.000122978,-5.08875e-05
30836463,1,0.000342926,-0.000290549,6.54304e-05,7.17401e-06,0.00177374,7.99428e-06,0.00984907,-0.0111234,-6.18523e-05
30844324,1,-0.000236817,-0.000850185,6.57631e-05,7.3399e-06,0.00177523,5.92107e-06,-0.00112179,0.000364381,-5.04558e-05
30852336,1,0.000342198,-0.0003033,6.53811e-05,7.42972e-06,0.00177592,7.97749e-06,0.00959955,-0.0108662,-6.10062e-05
30860262,1,-0.000238111,-0.000862036,6.57207e-05,7.42245e-06,0.0017762,5.90002e-06,-0.00137023,0.000641395,-5.03476e-05
30868288,1,0.000340159,-0.000316314,6.53329e-05,7.35621e-06,0.00177627,7.95468e-06,0.00931769,-0.0105761,-6.03264e-05
30876328,1,-0.0002407,-0.000873595,6.56788e-05,7.27021e-06,0.00177629,5.87535e-06,-0.00163028,0.000938986,-5.03607e-05
30884318,1,0.000338537,-0.000328563,6.52848e-05,7.17371e-06,0.0017763,7.93336e-06,0.00904108,-0.0103002,-5.97486e-05
30892317,1,-0.00024372,-0.000884841,6.5637e-05,7.14308e-06,0.00177634,5.84936e-06,-0.00188774,0.00124052,-5.04242e-05
30900300,1,0.000337408,-0.000340458,6.52365e-05,7.10636e-06,0.00177636,7.91414e-06,0.0087715,-0.0100361,-5.92195e-05
30908280,1,-0.000246783,-0.000895795,6.55954e-05,7.09128e-06,0.00177639,5.8232e-06,-0.00213804,0.00154285,-5.05138e-05
30916381,1,0.000335951,-0.000352794,6.51885e-05,7.09406e-06,0.0017764,7.89375e-06,0.00849471,-0.00976514,-5.86965e-05
30924523,1,-0.000249868,-0.000906297,6.55539e-05,7.09841e-06,0.00177642,5.79706e-06,-0.00237857,0.00184621,-5.06171e-05
30932420,1,0.000334441,-0.00036527,6.51407e-05,7.07784e-06,0.00177641,7.87308e-06,0.00821554,-0.00949228,-5.81903e-05
31002040,1,-0.000252702,-0.000915828,6.55122e-05,7.09509e-06,0.00177641,5.77179e-06,-0.00260004,0.00214486,-5.07317e-05
31009917,1,0.000333441,-0.000377309,6.50927e-05,7.08098e-06,0.0017764,7.85434e-06,0.00794479,-0.00922949,-5.77144e-05
31017834,1,-0.000256895,-0.000925789,6.54713e-05,7.07128e-06,0.0017764,5.74166e-06,-0.00283012,0.00247042,-5.08734e-05
31025822,1,0.000331463,-0.000390249,6.50456e-05,7.07157e-06,0.00177639,7.83206e-06,0.00765622,-0.00894768,-5.72225e-05
