timestamp_us,qw,qx,qy,qz,avx,avy,avz,ax,ay,az
20187823,-0.123923,-0.000846319,0.000343546,-0.992291,0.0126573,0.0024039,0.000559437,0.0174046,-0.036317,0.00146106
20263162,-0.123919,-0.000338542,-0.000229229,-0.992292,-0.00536337,0.00695374,-0.00118869,0.00893599,0.00257104,-0.024866
20270992,-0.123921,-0.000686991,-0.000922132,-0.992291,-0.00484133,-0.0054571,0.000464236,0.0611617,0.11129,0.0240811
20279061,-0.123916,-0.000319785,-0.000172701,-0.992293,-0.0120318,0.00803948,-0.00125293,-0.0449636,-0.15397,-0.0247645
20287053,-0.123917,-0.000977728,-0.000610102,-0.992292,-0.000724423,-0.00281634,0.000434741,0.0616953,0.0329273,0.0240429
20294973,-0.123919,-0.000899062,0.000135576,-0.992292,0.0126516,0.00240269,0.000559786,0.0172706,-0.0410763,0.00144615
20302987,-0.123915,-0.000304501,-0.000346401,-0.992293,-0.00536419,0.00695482,-0.00118735,0.0102701,-0.000179009,-0.024859
20311034,-0.123916,-0.000664269,-0.00103304,-0.992292,-0.00484097,-0.00545758,0.000462608,0.0622755,0.108665,0.0240864
20318937,-0.123912,-0.000304897,-0.000279415,-0.992293,-0.0120295,0.00804098,-0.00125237,-0.0440147,-0.156476,-0.0247843
20327000,-0.123913,-0.000978016,-0.000693616,-0.992292,-0.000723587,-0.00281665,0.000434271,0.0623037,0.0308425,0.0240358
20334955,-0.123915,-0.00090818,5.36034e-05,-0.992292,0.0126517,0.0024023,0.000560232,0.0177024,-0.0431378,0.00143959
20343045,-0.12391,-0.000279444,-0.000384688,-0.992293,-0.00536325,0.00695584,-0.00118686,0.0112563,-0.0013059,-0.0248522
20351009,-0.123912,-0.000646049,-0.00106746,-0.992292,-0.00484108,-0.00545818,0.000461945,0.0631245,0.107585,0.0240767
20359063,-0.123914,-0.00043197,-0.000327103,-0.992293,0.00721715,0.00148807,0.00059736,0.00453277,-0.0840406,0.00112914
20367026,-0.123916,-0.000623033,-0.00103873,-0.992292,-0.0150204,-0.00783785,0.000361924,0.0273233,0.0526467,-0.00202655
20375153,-0.123918,-0.000430727,-0.000302633,-0.992292,0.00932649,0.00423024,0.000547602,-0.00967934,-0.186288,0.00112475
20445435,-0.123913,-0.000439307,0.00050936,-0.992293,-0.00179929,0.00867608,-0.00120484,0.0192008,-0.0328148,-0.0248028
20453402,-0.123915,-0.000780184,-0.000202568,-0.992292,-0.00113004,-0.00506351,0.000460623,0.0762445,0.158594,0.0240936
20461461,-0.123917,-0.000388895,0.00045639,-0.992292,0.00860793,0.00137533,0.00058628,0.0107217,-0.0205027,0.00130654
20469502,-0.123919,-0.000529069,-0.000267174,-0.992292,-0.0153326,-0.00799082,0.000367766,0.0276627,0.0921684,-0.00205087
20477576,-0.123926,-8.12952e-05,0.000343593,-0.992291,0.0021748,0.0170628,0.00165858,-0.0285655,-0.0730311,-0.0206982
20485426,-0.123927,-0.000662317,0.0012398,-0.99229,-0.0184916,0.09764,0.000186268,0.0311618,-0.056976,0.0201911
20493473,-0.123929,-0.00133623,0.00151567,-0.992289,-0.00590672,-0.0199549,0.000294895,0.58247,-0.124068,0.00347709
20501519,-0.123928,-0.000431965,0.00139984,-0.99229,0.00278601,-0.0279353,0.000218321,-0.210295,-0.00712982,-0.00130461
20509482,-0.123928,0.000321397,0.00106191,-0.992291,0.00389391,-0.00528023,0.000117318,-0.305559,0.0904018,-0.00178627
20517608,-0.123927,0.000828663,0.000453585,-0.992291,0.00156957,0.0045749,6.63153e-05,-0.0967451,0.0971127,-0.00104871
20581144,-0.123927,0.000415683,-0.000240244,-0.992291,-0.000517286,0.00518709,4.46202e-05,0.0381169,0.0472548,-0.000740259
20588950,-0.123927,-0.000399055,-0.000247689,-0.992291,-0.00120877,0.00356007,3.02283e-05,0.071925,0.00328205,-0.000505856
20597031,-0.123927,-0.00113609,8.53841e-05,-0.992291,-0.000870358,0.00197532,2.04994e-05,0.0582394,-0.0172513,-0.000291492
20605027,-0.123926,-0.0016953,0.000662129,-0.99229,-0.000199775,0.000920771,1.32151e-05,0.0292469,-0.0143667,-0.000155217
20613098,-0.123925,-0.00133566,0.00137548,-0.99229,8.00617e-05,0.000667583,9.96554e-06,0.0197554,0.00266436,-0.000140379
20621162,-0.123925,-0.000904399,0.000700963,-0.992291,0.00040369,0.00076505,7.46798e-06,0.0159972,-0.00320897,-0.000144651
20629079,-0.123925,-0.000335783,0.00014146,-0.992291,0.000349158,0.00107752,7.7491e-06,0.0203642,-0.00704852,-0.000137588
20637045,-0.123925,-0.00111432,0.000346877,-0.992291,0.000256012,0.00134793,6.48423e-06,0.00356894,-0.00278183,-9.56574e-05
20645003,-0.123926,-0.00036802,7.21636e-05,-0.992291,0.000184205,0.00153328,7.06573e-06,0.019267,-0.00512555,-9.93751e-05
20653070,-0.123926,-0.00117532,6.89927e-05,-0.992291,0.000136327,0.0016429,7.0006e-06,0.00436647,-0.00629069,-7.11833e-05
20661196,-0.123926,-0.000382827,3.40877e-05,-0.992291,0.000100734,0.00170014,6.88462e-06,0.0204349,-0.00437418,-8.33328e-05
20669012,-0.123926,-0.00118806,-3.03199e-05,-0.992291,7.08514e-05,0.00172759,7.24659e-06,0.00514366,-0.00713663,-6.0662e-05
20677072,-0.123926,-0.00039641,1.91195e-05,-0.992291,4.61369e-05,0.0017412,6.7819e-06,0.0204176,-0.00402128,-7.6274e-05
20685105,-0.123926,-0.0011991,-6.38853e-05,-0.992291,3.61776e-05,0.00174576,7.32339e-06,0.00490945,-0.00748634,-5.71049e-05
20756318,-0.123926,-0.000409686,1.57633e-05,-0.992291,1.63446e-05,0.00175652,6.72154e-06,0.0199521,-0.00399562,-7.31991e-05
20764236,-0.123926,-0.00121189,-8.19906e-05,-0.992291,1.27278e-05,0.00175963,7.37107e-06,0.00447414,-0.00783404,-5.55997e-05
20772213,-0.123926,-0.000423621,1.19287e-05,-0.992291,7.73283e-06,0.00176752,6.70835e-06,0.0195322,-0.00404509,-7.13311e-05
20780250,-0.123926,-0.00122007,-0.000116681,-0.992291,7.11442e-06,0.00177124,7.48939e-06,0.00431857,-0.00841337,-5.52398e-05
20788234,-0.123926,-0.000435312,5.13694e-06,-0.992291,7.18562e-06,0.0017737,6.71914e-06,0.0192895,-0.00402409,-7.02833e-05
20796266,-0.123926,-0.00122324,-0.000172807,-0.992291,7.40257e-06,0.00177514,7.67349e-06,0.00438401,-0.00927878,-5.57222e-05
20804211,-0.123926,-0.000447213,-2.85761e-06,-0.992291,7.47613e-06,0.00177587,6.73645e-06,0.0190675,-0.00395765,-6.96047e-05
20812117,-0.123926,-0.00121873,-0.000237701,-0.992291,7.43255e-06,0.00177617,7.88487e-06,0.00461181,-0.0102768,-5.6689e-05
20820254,-0.123926,-0.000457385,-1.06337e-05,-0.992291,7.33499e-06,0.00177629,6.75224e-06,0.0188622,-0.00388327,-6.90982e-05
20828178,-0.123926,-0.00120682,-0.000309183,-0.992291,7.23017e-06,0.00177631,8.11655e-06,0.00498511,-0.0113928,-5.806e-05
20836397,-0.123926,-0.000467289,-1.84957e-05,-0.992291,7.12787e-06,0.00177634,6.7685e-06,0.0186532,-0.00381689,-6.86511e-05
20844595,-0.123926,-0.00118474,-0.000387147,-0.992291,7.09661e-06,0.00177635,8.36694e-06,0.00556799,-0.0126147,-5.98557e-05
20852466,-0.123926,-0.000476517,-2.63299e-05,-0.992291,7.06468e-06,0.00177638,6.78488e-06,0.0184567,-0.00375016,-6.82448e-05
20860498,-0.123926,-0.00114914,-0.000469481,-0.992291,7.05066e-06,0.00177639,8.62703e-06,0.00642564,-0.0138884,-6.2098e-05
20868548,-0.123926,-0.000484105,-3.34432e-05,-0.992291,7.05789e-06,0.00177641,6.7981e-06,0.0182913,-0.00366461,-6.78981e-05
20876545,-0.123926,-0.00110034,-0.000551432,-0.992291,7.05975e-06,0.00177641,8.88028e-06,0.00753982,-0.0151218,-6.4712e-05
20884570,-0.123926,-0.000490714,-3.99597e-05,-0.992291,7.04264e-06,0.00177642,6.80875e-06,0.018144,-0.00356418,-6.75874e-05
20954675,-0.123926,-0.00104016,-0.00062752,-0.992291,7.05489e-06,0.00177641,9.10793e-06,0.00886137,-0.0162132,-6.75586e-05
20962726,-0.123926,-0.000496405,-4.55929e-05,-0.992291,7.04505e-06,0.00177641,6.81604e-06,0.0180123,-0.00344447,-6.73e-05
20970622,-0.123927,-0.000972507,-0.000692954,-0.992291,7.02903e-06,0.00177639,9.29473e-06,0.0103024,-0.0170789,-7.04376e-05
20978538,-0.123926,-0.000501246,-4.99637e-05,-0.992291,7.03503e-06,0.0017764,6.81121e-06,0.017894,-0.00329834,-6.70305e-05
20986684,-0.123927,-0.000903122,-0.000745124,-0.992291,7.02717e-06,0.00177638,9.43414e-06,0.0117448,-0.0176826,-7.3128e-05
20994671,-0.123926,-0.000505618,-5.31799e-05,-0.992291,7.01018e-06,0.00177638,6.81651e-06,0.017782,-0.00312824,-6.67743e-05
21002494,-0.123927,-0.000837162,-0.000784797,-0.992291,7.01674e-06,0.00177636,9.53087e-06,0.0130902,-0.0180514,-7.55024e-05
21010486,-0.123926,-0.000510112,-5.60515e-05,-0.992291,7.01066e-06,0.00177637,6.81355e-06,0.0176667,-0.002952,-6.65104e-05
21018575,-0.123927,-0.000776181,-0.000812288,-0.992291,6.99148e-06,0.00177635,9.58668e-06,0.0143091,-0.018195,-7.74723e-05
21096717,-0.123926,-0.000514136,-5.69298e-05,-0.992291,7.00187e-06,0.00177636,6.8033e-06,0.0175558,-0.00273589,-6.62476e-05
21104565,-0.123927,-0.000722962,-0.000830589,-0.992291,6.99114e-06,0.00177634,9.61352e-06,0.0153546,-0.0181787,-7.90224e-05
21112389,-0.123927,-0.000518284,-5.715e-05,-0.992291,6.97765e-06,0.00177634,6.7907e-06,0.0174409,-0.002507,-6.59832e-05
21120386,-0.123927,-0.000677611,-0.000842816,-0.992291,6.98145e-06,0.00177632,9.62223e-06,0.0162322,-0.0180635,-8.0222e-05
21128351,-0.123927,-0.000522757,-5.76589e-05,-0.992291,6.97814e-06,0.00177633,6.77941e-06,0.0173204,-0.00228472,-6.57143e-05
21136410,-0.123927,-0.000638941,-0.000850192,-0.992291,6.95651e-06,0.00177631,9.61659e-06,0.016968,-0.0178698,-8.11145e-05
21144565,-0.123927,-0.000527333,-5.7602e-05,-0.992291,6.9692e-06,0.00177632,6.7661e-06,0.0171964,-0.00205177,-6.54438e-05
21152460,-0.123927,-0.00060637,-0.000854655,-0.992291,6.95642e-06,0.0017763,9.60343e-06,0.017578,-0.0176345,-8.1762e-05
21160439,-0.123921,-0.000410043,-0.00012008,-0.992292,0.00711927,0.0165497,-0.00155056,-0.0124065,-0.135587,-0.0231145
21168401,-0.123922,-0.000834338,-0.000855315,-0.992291,0.0130256,0.000560552,0.000244938,0.107483,0.195292,0.0259522
21176541,-0.123923,-0.000799242,-0.00161732,-0.99229,-0.0102319,-0.0054477,0.000131524,0.0030684,0.103931,-0.000132327
21184530,-0.123917,-0.000485449,-0.000874924,-0.992292,-0.00549829,0.0132751,-0.00144252,-0.0731552,-0.25139,-0.0242792
21274693,-0.123918,-0.00118417,-0.00130525,-0.992291,0.00760448,0.000180214,0.000307929,0.0716888,0.0357986,0.0251829
21282409,-0.12392,-0.00129024,-0.0020868,-0.992289,-0.00300102,-0.00447707,0.000227841,0.0199319,0.0668167,-0.000437117
21290528,-0.123921,-0.00101058,-0.00141189,-0.992291,0.0163515,0.00706469,0.000441757,-0.0171868,-0.123439,0.000703641
21298447,-0.123922,-0.00129101,-0.00213479,-0.992289,-0.00505849,-0.00504045,0.000256662,0.0448028,0.0960945,-0.000765827
21306414,-0.123924,-0.00103842,-0.0014361,-0.99229,0.0136509,0.00474154,0.000473646,-0.00954585,-0.118308,0.00156258
21314448,-0.123919,-0.000628539,-0.000756958,-0.992292,-0.00185539,0.00869354,-0.00124307,0.00777375,-0.022144,-0.0245621
21322470,-0.123921,-0.000963594,-0.00146792,-0.992291,-0.00239418,-0.00491292,0.000418978,0.0595604,0.115447,0.0247068
21330408,-0.123916,-0.00056466,-0.000741324,-0.992292,-0.0112458,0.0082025,-0.00126106,-0.053648,-0.154273,-0.0248039
21338375,-0.123917,-0.00125094,-0.00113387,-0.992291,-0.000719292,-0.00265148,0.000413986,0.0498611,0.019374,0.0242649
21346470,-0.123919,-0.00105527,-0.000410179,-0.992292,0.0126428,0.00258815,0.000549184,0.00897956,-0.0613153,0.00144888
21354673,-0.123914,-0.000282483,-0.000324142,-0.992293,-0.00516099,0.00711956,-0.0011972,0.00593469,-0.0064384,-0.0248812
21362475,-0.123916,-0.000628834,-0.00101941,-0.992292,-0.0045077,-0.00531678,0.000459373,0.0595696,0.108323,0.0241976
21430520,-0.123911,-0.000256221,-0.000274382,-0.992293,-0.0117312,0.00812803,-0.00125284,-0.0456751,-0.152159,-0.0248302
21438283,-0.123913,-0.000893625,-0.000741992,-0.992292,-0.000523737,-0.00275765,0.000432131,0.0616121,0.036396,0.0241314
21446365,-0.123915,-0.000812491,2.86743e-06,-0.992293,0.0127438,0.00243204,0.00056169,0.017148,-0.0376321,0.00144093
21454244,-0.12391,-0.00025943,-0.000525659,-0.992293,-0.00535257,0.00696051,-0.00118849,0.00926774,0.00129342,-0.0249015
21462375,-0.123912,-0.000612598,-0.00121579,-0.992292,-0.00485901,-0.00545117,0.000460141,0.0612123,0.109055,0.0242116
21470387,-0.123907,-0.00024961,-0.000464081,-0.992294,-0.0120603,0.0080354,-0.00124907,-0.0450701,-0.15686,-0.024895
21478692,-0.123909,-0.000921927,-0.0008802,-0.992293,-0.000740137,-0.00281426,0.000432876,0.0611783,0.0301246,0.0241114
21486342,-0.123911,-0.00083527,-0.000134733,-0.992293,0.0126462,0.00240414,0.00056327,0.0169131,-0.0439245,0.00141916
21494548,-0.123906,-0.000186749,-0.000543404,-0.992294,-0.00536871,0.00695149,-0.00118817,0.0108011,-0.00139757,-0.0249035
21502403,-0.123908,-0.000551097,-0.00122743,-0.992293,-0.00483932,-0.00545336,0.00045984,0.0627122,0.107582,0.0241843
21510429,-0.123903,-0.000194907,-0.000472111,-0.992294,-0.0120325,0.00803738,-0.00125051,-0.0436026,-0.157497,-0.0248827
21518646,-0.123905,-0.000873691,-0.000877085,-0.992293,-0.000720822,-0.00281379,0.000433057,0.0625556,0.0300442,0.0240928
21526650,-0.123906,-0.000807357,-0.000129292,-0.992294,0.0126553,0.00240381,0.000564049,0.0178933,-0.0439346,0.00141883
21605663,-0.123902,-0.000165625,-0.000549068,-0.992294,-0.00536578,0.0069518,-0.00118797,0.0116598,-0.00170787,-0.0248966
21613546,-0.123904,-0.000534791,-0.00123039,-0.992293,-0.00484101,-0.00545477,0.000459613,0.06346,0.107209,0.0241685
21621615,-0.123899,-0.000181872,-0.000473304,-0.992295,-0.0120339,0.00803765,-0.00125115,-0.0429409,-0.157913,-0.0248717
21629589,-0.123901,-0.00086484,-0.000870884,-0.992294,-0.00072317,-0.00281477,0.000433106,0.063119,0.0297149,0.0240797
21637604,-0.123902,-0.000806599,-0.000122204,-0.992294,0.0126537,0.00240313,0.00056403,0.018294,-0.044276,0.00141964
21645677,-0.123898,-0.000162166,-0.000538043,-0.992295,-0.00536545,0.00695255,-0.00118785,0.0121018,-0.00196251,-0.0248892
21653489,-0.1239,-0.000533931,-0.00121788,-0.992294,-0.00484105,-0.00545537,0.000459661,0.0638529,0.106983,0.0241517
21661525,-0.123902,-0.000326446,-0.000475667,-0.992294,0.00721874,0.00148941,0.000599887,0.00514281,-0.0846415,0.00110718
21669461,-0.123904,-0.000643347,-0.00118082,-0.992293,-0.00535499,-0.00533257,0.000469076,0.0513663,0.0988154,-0.00215865
21677540,-0.123899,-0.000305308,-0.000418914,-0.992295,-0.0114996,0.00813314,-0.00124434,-0.0432638,-0.168349,-0.0249056
21685670,-0.123894,-0.000702762,0.000305931,-0.992295,-0.00180182,0.00867242,-0.00120157,0.0300117,-0.0242771,0.000163111
21693549,-0.123896,-0.00102339,-0.00041616,-0.992295,-0.00112937,-0.00506103,0.00045888,0.0701867,0.155899,0.02426
21701530,-0.123898,-0.000551875,0.000189367,-0.992295,0.00860993,0.00137635,0.000585054,0.00639027,-0.0240572,0.00129861
21788823,-0.1239,-0.000663464,-0.00054045,-0.992294,-0.0153338,-0.00798732,0.0003669,0.023901,0.0885776,-0.00197692
21796734,-0.123902,-0.000440588,0.000189949,-0.992294,0.00854825,0.00414004,0.000537492,-0.014801,-0.17499,0.00130895
21804756,-0.123897,-0.000354414,0.000995574,-0.992295,-0.00233377,0.00864436,-0.00121763,0.0158445,-0.0325652,-0.0247817
21812830,-0.123899,-0.000685476,0.000279343,-0.992295,-0.0012813,-0.0050441,0.00046424,0.0738349,0.158949,0.0239799
21820875,-0.123901,-0.000216177,0.000886864,-0.992294,0.00869909,0.0014128,0.000586412,0.010858,-0.016355,0.00133202
21828832,-0.123903,-0.000355707,0.00016331,-0.992294,-0.0151718,-0.00795218,0.000371422,0.0284494,0.100776,-0.00213142
21836794,-0.123905,-0.00014185,0.000896939,-0.992294,0.008681,0.0041659,0.000534781,-0.0101188,-0.160212,0.00156735
21844850,-0.1239,-0.000177385,0.0017107,-0.992293,-0.002258,0.00865735,-0.00123053,0.0182067,-0.0172011,-0.024739
21852779,-0.123902,-0.000498802,0.000989731,-0.992294,-0.00125551,-0.00503876,0.000471141,0.0763568,0.174084,0.0237107
21860764,-0.123897,-7.9746e-05,0.00168148,-0.992294,-0.0053625,0.00695004,-0.00121573,-0.0523183,-0.142259,-0.046889
21868985,-0.123899,-0.000297442,0.000978708,-0.992294,-0.0151839,-0.00795349,0.000385496,0.0431786,0.119951,0.0150626
21944436,-0.1239,-6.86665e-05,0.00170724,-0.992293,0.00866866,0.00416499,0.000527544,-0.010262,-0.144721,0.00181787
21952353,-0.123896,-0.000209772,0.00251435,-0.992292,-0.00226529,0.00865548,-0.00124335,0.0160152,-0.00224961,-0.0247067
21960426,-0.123899,-0.000508886,0.00178232,-0.992293,-0.00125882,-0.00503888,0.00047927,0.0746185,0.188941,0.0234309
21968548,-0.1239,0.000199346,0.00139447,-0.992294,0.00869539,0.00141321,0.000590727,0.018624,-0.0057104,0.00133358
21976540,-0.123902,2.07198e-05,0.000680505,-0.992294,-0.0151829,-0.00795422,0.000370555,0.0353617,0.111075,-0.00227556
21984580,-0.123903,0.000210717,0.00142113,-0.992293,0.00866894,0.00416479,0.000535096,-0.00372417,-0.150069,0.00175186
21992525,-0.123899,-0.000114474,0.00218068,-0.992292,-0.00226374,0.00865736,-0.00123805,0.0190814,-0.00894176,-0.0247033
22000501,-0.123902,-0.000430149,0.00145649,-0.992293,-0.00125856,-0.00503968,0.000475757,0.0773627,0.182327,0.023518
22008459,-0.123903,0.00035983,0.00146772,-0.992293,0.00869491,0.00141301,0.000593034,0.0219778,-0.0043402,0.00132846
22016522,-0.123897,0.00113756,0.00152302,-0.992293,-0.00796522,0.00687309,-0.00122192,0.0234612,-0.00288128,-0.0249271
22024508,-0.123899,0.000691379,0.000894285,-0.992294,-0.00535634,-0.00533362,0.00048086,0.0825512,0.113318,0.0233674
22032473,-0.123894,0.000992283,0.00167488,-0.992294,-0.0114915,0.00813246,-0.00130611,-0.0211814,-0.127335,-0.0241263
22040485,-0.1239,0.000626958,0.000976423,-0.992294,-0.00659854,0.0101599,0.00154944,0.0706749,0.171867,0.00199799
22048444,-0.123895,0.000591736,0.00187009,-0.992293,-0.0215311,0.0139543,-0.00148058,0.0463629,-0.269637,0.000857665
22119209,-0.123898,-0.000299541,0.00184649,-0.992293,-0.00417465,0.023943,0.000380837,0.299349,0.050228,0.0151723
22127141,-0.123901,-0.000928938,0.00164801,-0.992293,-0.00822488,-0.0347596,0.000387097,0.101748,0.0301921,-0.000142266
22135031,-0.123901,-6.65329e-05,0.00158561,-0.992293,-0.00476719,-0.0159397,0.000229556,-0.347029,-0.0159961,-0.00209592
22143248,-0.1239,0.000713957,0.00144177,-0.992293,-0.000713507,0.00158269,0.000119457,-0.204203,0.00907173,-0.00133413
22151368,-0.1239,0.000988429,0.000697985,-0.992294,0.000943697,0.00555957,7.75343e-05,-0.00493126,0.0349285,-0.00098186
22159327,-0.1239,0.000287996,0.000277871,-0.992295,0.00073663,0.00441782,5.29644e-05,0.0728597,0.0400868,-0.000729672
22167405,-0.1239,-0.000482855,2.6093e-05,-0.992295,5.05073e-05,0.00263262,3.54721e-05,0.0771692,0.0240521,-0.00043615
22175217,-0.1239,-0.0012837,-5.29334e-05,-0.992294,-0.000310142,0.00126675,2.41202e-05,0.0496565,0.00284572,-0.000234718
22183109,-0.123899,-0.0019434,0.000405601,-0.992293,-0.000236644,0.000518758,1.62115e-05,0.0153164,-0.00364583,-0.000152327
22191141,-0.123899,-0.00115047,0.000508143,-0.992294,4.29036e-05,0.000350915,1.10378e-05,0.0131096,-0.00566409,-0.000147834
22199114,-0.123899,-0.00035359,0.000464598,-0.992295,0.000223555,0.000664116,8.63555e-06,0.01885,-0.0045042,-0.000143568
22207096,-0.123899,-0.000192937,-0.000318811,-0.992295,0.000248908,0.00109837,8.96975e-06,0.0216539,-0.0175554,-0.000148079
22280690,-0.123899,-0.000477596,0.000431176,-0.992295,0.000211131,0.00141374,6.42768e-06,0.0158396,-0.00208567,-0.000103099
22288700,-0.123899,-0.000686523,-0.000342638,-0.992294,0.000175718,0.0015829,8.46949e-06,0.0155986,-0.0163041,-0.000100735
22296733,-0.123899,-0.000547032,0.000445464,-0.992295,0.000152934,0.00165712,5.71676e-06,0.0174547,0.00075268,-8.02887e-05
22304643,-0.123899,-0.000694803,-0.000342634,-0.992294,0.000131498,0.0016862,8.25832e-06,0.0166585,-0.0136281,-8.25898e-05
22312710,-0.123899,-0.000509781,0.000434592,-0.992295,0.000104572,0.00170054,5.50081e-06,0.0180338,0.0029711,-7.28618e-05
22320661,-0.123899,-0.000644742,-0.000354956,-0.992295,7.44311e-05,0.00171352,8.16082e-06,0.0168608,-0.0121089,-7.6033e-05
22328643,-0.123899,-0.000466841,0.000424478,-0.992295,4.70501e-05,0.00172817,5.38648e-06,0.0180491,0.00375111,-7.02879e-05
22336534,-0.1239,-0.000625084,-0.000361187,-0.992295,2.66976e-05,0.00174289,8.12585e-06,0.0166558,-0.0118792,-7.35113e-05
22344507,-0.123899,-0.000456906,0.000420535,-0.992295,1.43146e-05,0.00175551,5.32312e-06,0.0179398,0.00371483,-6.86702e-05
22352536,-0.1239,-0.000625735,-0.000362779,-0.992294,8.36488e-06,0.00176477,8.11916e-06,0.0165506,-0.0119543,-7.23327e-05
22431505,-0.123899,-0.000458527,0.000419169,-0.992295,6.45585e-06,0.00177067,5.29477e-06,0.0179278,0.00370586,-6.78145e-05
22439549,-0.1239,-0.000628609,-0.000364058,-0.992294,6.44755e-06,0.00177388,8.11562e-06,0.0165457,-0.0118677,-7.16245e-05
22447539,-0.123899,-0.000457691,0.000417331,-0.992295,7.00447e-06,0.00177537,5.28179e-06,0.0179833,0.00386921,-6.75889e-05
22455681,-0.1239,-0.000628853,-0.00036604,-0.992294,7.45621e-06,0.0017759,8.1088e-06,0.016553,-0.0116643,-7.11584e-05
22463739,-0.123899,-0.000453434,0.00041471,-0.992295,7.63856e-06,0.00177605,5.27307e-06,0.0180553,0.0040884,-6.76789e-05
22471588,-0.1239,-0.000628006,-0.000368082,-0.992294,7.60404e-06,0.00177608,8.09994e-06,0.0165419,-0.011442,-7.08114e-05
22479701,-0.123899,-0.000447891,0.000411555,-0.992295,7.47838e-06,0.00177613,5.26593e-06,0.0181318,0.00429422,-6.78764e-05
22487704,-0.1239,-0.000627385,-0.000369841,-0.992294,7.32842e-06,0.00177619,8.09041e-06,0.0165183,-0.0112274,-7.05058e-05
22495723,-0.123899,-0.000441951,0.000408025,-0.992295,7.22908e-06,0.00177628,5.26031e-06,0.0182176,0.0044829,-6.811e-05
22503711,-0.1239,-0.000627127,-0.000371136,-0.992294,7.16836e-06,0.00177633,8.0797e-06,0.0164902,-0.0110108,-7.02065e-05
22511659,-0.123899,-0.000435332,0.000404771,-0.992295,7.14361e-06,0.00177639,5.25375e-06,0.0183195,0.00467681,-6.83833e-05
22519705,-0.1239,-0.00062725,-0.000372734,-0.992294,7.1371e-06,0.00177641,8.07036e-06,0.0164575,-0.0108005,-6.99132e-05
22527728,-0.123899,-0.000427956,0.000401124,-0.992295,7.1464e-06,0.00177643,5.24833e-06,0.0184378,0.00486613,-6.86948e-05
22605352,-0.1239,-0.000627668,-0.000374687,-0.992294,7.14089e-06,0.00177641,8.0624e-06,0.0164198,-0.0105965,-6.96243e-05
22613000,-0.1239,-0.000419752,0.000396994,-0.992295,7.14593e-06,0.00177642,5.24434e-06,0.018573,0.00504889,-6.90412e-05
22621162,-0.1239,-0.000628403,-0.000377138,-0.992294,7.14158e-06,0.0017764,8.05623e-06,0.0163768,-0.0104028,-6.93452e-05
22629090,-0.1239,-0.000410778,0.000392115,-0.992295,7.13535e-06,0.0017764,5.2427e-06,0.0187248,0.00521908,-6.94174e-05
22637068,-0.1239,-0.000629348,-0.000379727,-0.992294,7.12013e-06,0.00177639,8.04336e-06,0.0163299,-0.0102122,-6.90696e-05
22645084,-0.1239,-0.000400952,0.000386696,-0.992295,7.1271e-06,0.00177639,5.24251e-06,0.0188944,0.00538055,-6.983e-05
22653038,-0.1239,-0.000630435,-0.000382262,-0.992294,7.11326e-06,0.00177637,8.04505e-06,0.0162801,-0.0100211,-6.87856e-05
22661213,-0.1239,-0.000390186,0.00038074,-0.992295,7.105e-06,0.00177638,5.23655e-06,0.0190836,0.00553404,-7.02858e-05
22669182,-0.1239,-0.00063164,-0.000384712,-0.992294,7.10645e-06,0.00177636,8.03908e-06,0.0162279,-0.00982872,-6.85043e-05
22677241,-0.1239,-0.00037847,0.000374048,-0.992295,7.09974e-06,0.00177636,5.24746e-06,0.0192931,0.00567533,-7.07725e-05
22685242,-0.1239,-0.000632988,-0.00038724,-0.992294,7.09302e-06,0.00177635,8.0335e-06,0.016173,-0.00963808,-6.82255e-05
22693258,-0.1239,-0.00036588,0.00036622,-0.992295,7.09323e-06,0.00177635,5.25461e-06,0.0195225,0.00579663,-7.12982e-05
22701250,-0.1239,-0.000634586,-0.000390207,-0.992294,7.08054e-06,0.00177633,8.02961e-06,0.0161144,-0.00945655,-6.79511e-05
22709325,-0.1239,-0.000352605,0.000356734,-0.992295,7.07948e-06,0.00177634,5.26736e-06,0.0197691,0.00588735,-7.18465e-05
22824142,-0.1239,-0.000636604,-0.000394107,-0.992294,7.07405e-06,0.00177632,8.0291e-06,0.0160499,-0.0092943,-6.76912e-05
22832106,-0.1239,-0.000338475,0.000346232,-0.992295,7.06662e-06,0.00177632,5.28335e-06,0.0200349,0.00596049,-7.2429e-05
22840287,-0.1239,-0.000638786,-0.000398252,-0.992294,7.06041e-06,0.00177631,8.02959e-06,0.0159827,-0.00913721,-6.7434e-05
22848179,-0.1239,-0.000323086,0.000335622,-0.992295,7.05984e-06,0.00177631,5.29911e-06,0.0203255,0.00603443,-7.30731e-05
22856280,-0.1239,-0.000640713,-0.000401645,-0.992294,7.04776e-06,0.00177629,8.02734e-06,0.0159187,-0.00896478,-6.71697e-05
22864230,-0.123901,-0.00080316,0.000290455,-0.992294,0.0267286,0.0101692,0.00028518,0.0295056,-0.055621,0.00303122
22872309,-0.123902,-0.00102253,-0.00047135,-0.992294,-0.0010875,-0.00470562,0.000185411,0.0605519,0.233422,-0.000375505
22880203,-0.123903,-0.000201633,-0.000452852,-0.992294,-0.0136183,-0.00375433,0.000106136,-0.0279665,-0.00734541,-0.000722406
22888187,-0.123905,-5.88221e-05,0.000261641,-0.992294,0.0173705,0.00863411,0.000394825,-0.00517475,-0.203934,0.00237881
22896292,-0.123906,-0.000400351,-0.000443993,-0.992294,-0.0030014,-0.00447619,0.000239464,0.0608382,0.116611,-0.00104819
22904334,-0.1239,-4.12725e-05,0.00027199,-0.992295,-0.00447561,0.0114442,-0.00141079,-0.046783,-0.152794,-0.0238418
22912519,-0.123902,-0.000555179,-0.000363886,-0.992294,0.00565187,-0.000844147,0.000351154,0.0795432,0.0910327,0.0247747
22920388,-0.123896,-0.000100717,0.000291319,-0.992295,-0.00415716,0.00950506,-0.00133249,-0.0176128,-0.0620089,-0.0239997
22928522,-0.123898,-0.000514508,-0.000396624,-0.992295,0.00161096,-0.00265577,0.000379402,0.0709294,0.110842,0.0245725
23012130,-0.123893,-9.77688e-05,0.000299286,-0.992296,-0.00732042,0.00900079,-0.00131666,-0.0301207,-0.0956237,-0.0242005
23020129,-0.123894,-0.00057695,-0.000338509,-0.992295,0.000671071,-0.0026539,0.000394824,0.0668463,0.0788411,0.0243972
23028145,-0.123896,-0.000455322,0.000403088,-0.992295,0.0122729,0.00248867,0.000542331,0.0159114,-0.0297362,0.00163023
23036228,-0.123891,0.000303193,0.000263737,-0.992296,-0.00589424,0.00710963,-0.00122378,0.0110324,-0.00365392,-0.0248138
23044038,-0.123893,-8.23485e-05,-0.000407977,-0.992296,-0.00487461,-0.00524971,0.000456404,0.0649447,0.103819,0.0239954
23052110,-0.123888,0.000263127,0.000351669,-0.992296,-0.0116598,0.00822436,-0.00127731,-0.0391414,-0.152259,-0.0245688
23059998,-0.12389,-0.000374911,-0.0001188,-0.992296,-0.000237482,-0.00266297,0.000433635,0.0696042,0.0440069,0.024026
23068004,-0.123892,-0.00049473,0.000625347,-0.992295,0.0130349,0.00250297,0.000563315,0.0220357,-0.0247428,0.00148396
23076082,-0.123887,-0.000259349,-0.000107996,-0.992296,-0.00515804,0.00700291,-0.0011944,0.00875423,0.0119875,-0.0248977
23083876,-0.123889,-0.000590988,-0.000809034,-0.992296,-0.0047706,-0.00542973,0.000464399,0.0610916,0.11983,0.0241348
23091903,-0.123891,-0.000274336,-0.00150451,-0.992295,-0.015161,-0.00793723,0.000335623,0.00583229,0.0197799,-0.00169604
23099895,-0.123893,-0.000183166,-0.000706223,-0.992295,-0.000757933,-0.00281397,0.000433042,0.0197218,-0.0939161,-5.0956e-05
23189142,-0.123895,-0.000319174,3.59731e-05,-0.992295,0.0126217,0.00240207,0.000574394,0.0265604,-0.0391388,0.00141839
23197043,-0.123891,5.15549e-05,-0.000636051,-0.992296,-0.00538604,0.0069502,-0.00119014,0.015618,-0.00274841,-0.0249104
23204984,-0.123892,-0.000338145,-0.00130544,-0.992295,-0.00484885,-0.00545377,0.00045708,0.0670098,0.106373,0.0241674
23212941,-0.123895,-0.000156464,-0.000556428,-0.992295,0.00721921,0.00149091,0.000602739,0.00780174,-0.0850677,0.00109597
23220972,-0.123896,-0.000488534,-0.00125427,-0.992294,-0.00535309,-0.00533019,0.000466973,0.0537206,0.0986016,-0.00215645
23228732,-0.123898,-0.000267194,-0.000526565,-0.992295,0.00933301,0.00423184,0.000552465,-0.00405701,-0.118396,8.11446e-05
23236885,-0.123894,-0.000293474,0.000285505,-0.992295,-0.00179964,0.00867094,-0.00120438,0.01996,-0.0337988,-0.0248889
23244981,-0.123896,-0.000638183,-0.000424516,-0.992295,-0.00112836,-0.00505949,0.000458517,0.0769014,0.157663,0.0242188
23252975,-0.123898,-0.000267834,0.000246422,-0.992295,0.00861061,0.00137731,0.000589626,0.0109659,-0.0212885,0.00129924
23261043,-0.123899,-0.000410209,-0.000476711,-0.992295,-0.0153345,-0.00798577,0.000361256,0.0278584,0.091395,-0.00199869
23269028,-0.123901,-0.00020119,0.000258159,-0.992294,0.00854866,0.0041405,0.000540465,-0.0111223,-0.172139,0.00134416
23277031,-0.123896,-0.000184473,0.00107149,-0.992295,-0.00233475,0.00864214,-0.00122083,0.0181427,-0.0297392,-0.0248037
23356402,-0.123899,-0.000520144,0.00035767,-0.992295,-0.00128124,-0.00504278,0.000464932,0.0760424,0.161831,0.0239511
23364317,-0.123901,-6.4037e-05,0.000974201,-0.992294,0.00869968,0.00141367,0.000588649,0.0127884,-0.0133442,0.00133176
23372080,-0.123902,-0.000213689,0.00025311,-0.992294,-0.0151723,-0.00795063,0.00036949,0.0301769,0.103816,-0.0021542
23380154,-0.123904,-5.10707e-06,0.000988472,-0.992294,0.00868187,0.00416641,0.000535901,-0.00849541,-0.157161,0.00159828
23388073,-0.123899,-0.000101979,0.00179967,-0.992293,-0.00225892,0.00865515,-0.0012333,0.0186384,-0.0143494,-0.0247619
23396154,-0.123902,-0.000421737,0.00107775,-0.992294,-0.0012552,-0.00503743,0.000472048,0.0768193,0.176943,0.0236913
23404166,-0.123903,0.00028711,0.00139728,-0.992293,0.00869686,0.00141432,0.000592339,0.0191127,-0.00396289,0.00132968
23412126,-0.123906,1.92119e-05,0.00066882,-0.992294,-0.00484173,-0.00545455,0.000477489,0.0609672,0.165692,-0.00263215
23420083,-0.123907,0.0002709,0.00138978,-0.992293,0.00866916,0.00416522,0.000536199,0.00118193,-0.0749608,0.000492104
23428071,-0.123903,-7.10565e-05,0.00214236,-0.992292,-0.00226615,0.00865434,-0.00123886,0.0187933,-0.00819325,-0.0247416
23436263,-0.123906,-0.000384981,0.00141731,-0.992293,-0.00125853,-0.00503798,0.000475441,0.0771016,0.183075,0.0235579
23444156,-0.123907,0.000406045,0.00137205,-0.992293,0.00869595,0.0014141,0.000594423,0.0218836,-0.0047007,0.00132496
23452195,-0.123909,0.000209714,0.000663124,-0.992293,-0.0151832,-0.00795299,0.000365197,0.0382657,0.112145,-0.00228448
23460150,-0.123911,0.000386592,0.00140709,-0.992292,0.00866968,0.00416534,0.000537959,-0.00108468,-0.148977,0.00174917
23533696,-0.123913,-4.35658e-05,0.000741462,-0.992293,-0.000723899,-0.00281472,0.000441788,0.0790126,0.119424,-0.00249058
23541471,-0.123915,-0.000482588,8.9246e-05,-0.992293,-0.0012582,-0.00503976,0.000461826,0.0393064,0.0362486,0.000189927
23549387,-0.123917,-0.000148532,0.000778049,-0.992292,0.00869617,0.00141316,0.000587954,0.0129407,-0.0180572,0.00132646
23557699,-0.123912,0.00049954,0.00124871,-0.992292,-0.00796825,0.006872,-0.00120813,0.0109267,-0.00881153,-0.0249294
23565656,-0.123914,9.14374e-05,0.000592472,-0.992293,-0.00535545,-0.00533285,0.000483108,0.0707621,0.106918,0.0235602
23573706,-0.123909,0.000435472,0.00135148,-0.992293,-0.0114953,0.0081312,-0.00128716,-0.0320206,-0.134026,-0.0242789
23581631,-0.123911,-0.000136301,0.000801005,-0.992293,-0.000116072,-0.00277606,0.000446267,0.0774673,0.0679381,0.0237754
23589560,-0.123914,-0.000728555,0.00130619,-0.992292,0.0129427,0.00239717,0.000556714,0.0200876,-0.00782668,0.00148485
23597672,-0.123909,-0.000541879,0.000558982,-0.992293,-0.00536424,0.00692212,-0.00119416,0.00499331,0.0241357,-0.0248708
23605777,-0.123912,-0.000840899,-0.000155758,-0.992293,-0.0049756,-0.00549425,0.000475254,0.057511,0.128207,0.0239068
23613653,-0.123914,-0.00052218,-0.000848594,-0.992292,-0.0153327,-0.00799031,0.000355446,0.00211937,0.02675,-0.0017677
23693248,-0.123915,-0.000402734,-5.39713e-05,-0.992293,-0.000820018,-0.00283486,0.000437763,0.0166024,-0.0872022,6.41164e-05
23701141,-0.12391,-0.000136496,0.000702342,-0.992293,-0.00233186,0.00864798,-0.0012135,-0.0336682,-0.193925,-0.0470733
23709149,-0.123906,-0.000530347,1.68366e-05,-0.992294,-0.00537126,0.00695356,-0.00118833,0.0339881,0.0423785,0.00018419
23717130,-0.123908,-0.00085973,-0.000685863,-0.992293,-0.00483226,-0.00545787,0.000468284,0.0584279,0.113544,0.0240131
23725108,-0.123903,-0.000478919,5.57576e-05,-0.992294,-0.0120161,0.00804353,-0.0012529,-0.0473524,-0.151449,-0.0246872
23733180,-0.123905,-0.00111479,-0.000413597,-0.992293,-0.000714875,-0.00281632,0.00043603,0.0598415,0.0350642,0.0240157
23741280,-0.123913,-0.000935976,-0.00119398,-0.992292,0.0062945,0.0153174,0.00173102,-0.00108752,0.0318889,-0.020677
23749201,-0.123914,-0.00128826,-0.000259835,-0.992292,-0.021524,0.0959639,0.00052458,0.0123692,-0.0287013,0.0201327
23757224,-0.123914,-0.00192939,0.000104404,-0.992291,-0.00945368,-0.0203743,0.000261031,0.558825,-0.176755,0.00335585
23765242,-0.123915,-0.00102785,0.000207173,-0.992292,0.0012934,-0.0278686,0.000155013,-0.225102,-0.0741954,-0.00165012
23773373,-0.123915,-0.000237909,-2.71101e-05,-0.992293,0.00403162,-0.00516561,0.00010785,-0.31372,0.0446046,-0.00191034
23781251,-0.123916,0.000346179,-0.00055996,-0.992293,0.00221208,0.00464175,8.01899e-05,-0.101521,0.0749987,-0.000963881
23869017,-0.123915,-6.69716e-05,-0.00125441,-0.992292,-5.59129e-05,0.00520234,5.90694e-05,0.0334114,0.0356229,-0.000629321
23876761,-0.123915,-0.000872573,-0.00113388,-0.992292,-0.00107805,0.00353927,3.90306e-05,0.0664014,-0.00558003,-0.000449896
23884765,-0.123913,-0.00150793,-0.000633193,-0.992292,-0.000954367,0.00193953,2.48036e-05,0.0534957,-0.0266518,-0.000292183
23892771,-0.123912,-0.00182222,0.000105723,-0.992292,-0.000346283,0.000883702,1.50442e-05,0.0283069,-0.0239991,-0.000177849
23900831,-0.123911,-0.00140633,0.000788008,-0.992292,0.00015474,0.000558899,9.64836e-06,0.0155604,-0.00813903,-0.000143904
23908634,-0.123911,-0.000635925,0.000580928,-0.992293,0.000341665,0.000745943,8.02075e-06,0.018527,-0.00480443,-0.000149675
23916662,-0.123911,-0.00016658,-6.50286e-05,-0.992293,0.000329277,0.00106995,8.37914e-06,0.0240034,-0.01184,-0.000151276
23924715,-0.123911,-0.000727789,0.00051045,-0.992293,0.000258994,0.00134662,6.19013e-06,0.0106632,0.000611074,-0.000101086
23932630,-0.123911,-0.000282463,-0.000151226,-0.992293,0.000195178,0.00153395,7.82472e-06,0.0215352,-0.0096044,-0.000107879
23940759,-0.123911,-0.000861477,0.000408319,-0.992293,0.000147045,0.00164342,5.87676e-06,0.00975027,0.000974784,-7.33287e-05
23948751,-0.123911,-0.000350202,-0.000200854,-0.992293,0.000108058,0.00169991,7.70946e-06,0.0217454,-0.00886591,-8.93167e-05
23956788,-0.123911,-0.000913693,0.000374495,-0.992293,7.45849e-05,0.00172679,5.7902e-06,0.0095907,0.00142657,-6.15951e-05
24040093,-0.123911,-0.000366609,-0.000203145,-0.992293,4.73098e-05,0.0017402,7.556e-06,0.0216128,-0.00827928,-8.15732e-05
24048070,-0.123911,-0.000913581,0.000389126,-0.992293,2.7751e-05,0.00174878,5.65414e-06,0.00939956,0.0019657,-5.7509e-05
24056173,-0.123911,-0.000369989,-0.000192321,-0.992293,1.57427e-05,0.00175588,7.43921e-06,0.0212613,-0.00803632,-7.82793e-05
24064145,-0.123911,-0.00091439,0.000402908,-0.992293,1.2123e-05,0.00175913,5.56226e-06,0.00914032,0.00225511,-5.60067e-05
24072131,-0.123911,-0.000378719,-0.00018574,-0.992293,7.43742e-06,0.00176733,7.38957e-06,0.0209417,-0.00785933,-7.65809e-05
24080125,-0.123911,-0.000921279,0.000409452,-0.992293,7.03985e-06,0.00177118,5.5186e-06,0.00891162,0.00247604,-5.50555e-05
24088065,-0.123911,-0.000391726,-0.000184363,-0.992293,7.24076e-06,0.00177369,7.37422e-06,0.0206566,-0.00767981,-7.52567e-05
24095986,-0.123911,-0.000935945,0.000411094,-0.992293,7.50742e-06,0.00177515,5.4992e-06,0.00861515,0.00271203,-5.45154e-05
24104027,-0.123911,-0.000406464,-0.000182219,-0.992293,7.57393e-06,0.00177587,7.35754e-06,0.0203559,-0.00741901,-7.42038e-05
24111945,-0.123911,-0.000949515,0.000412877,-0.992293,7.5072e-06,0.00177618,5.48165e-06,0.00832932,0.0029698,-5.42074e-05
24120013,-0.123912,-0.000420232,-0.000180155,-0.992293,7.38114e-06,0.00177628,7.34009e-06,0.0200566,-0.00716122,-7.33146e-05
24214690,-0.123911,-0.000962016,0.000416097,-0.992293,7.26204e-06,0.00177631,5.45991e-06,0.00804574,0.00324818,-5.4014e-05
24222592,-0.123912,-0.000433887,-0.000177769,-0.992293,7.14855e-06,0.00177633,7.32171e-06,0.0197495,-0.006905,-7.24862e-05
24230453,-0.123911,-0.000974197,0.000420153,-0.992293,7.1196e-06,0.00177635,5.43548e-06,0.00776244,0.00353884,-5.38725e-05
24238568,-0.123912,-0.00044765,-0.000175269,-0.992293,7.08543e-06,0.00177637,7.30357e-06,0.0194395,-0.00664843,-7.16807e-05
24246460,-0.123911,-0.000986086,0.000424344,-0.992293,7.07858e-06,0.0017764,5.41053e-06,0.00748542,0.00383359,-5.37646e-05
24254265,-0.123912,-0.000461214,-0.00017302,-0.992293,7.07912e-06,0.0017764,7.27908e-06,0.0191351,-0.00639525,-7.09078e-05
24262299,-0.123911,-0.000997443,0.000428756,-0.992293,7.0917e-06,0.00177642,5.38477e-06,0.00721902,0.00413476,-5.36838e-05
24270336,-0.123912,-0.00047459,-0.000170991,-0.992293,7.06903e-06,0.00177641,7.26971e-06,0.0188354,-0.00614488,-7.01684e-05
24278448,-0.123911,-0.00100757,0.000433438,-0.992293,7.0885e-06,0.00177642,5.3575e-06,0.00697594,0.00444443,-5.36406e-05
24286481,-0.123912,-0.000487805,-0.000169086,-0.992293,7.07131e-06,0.0017764,7.25361e-06,0.0185389,-0.00589673,-6.94493e-05
24294438,-0.123911,-0.00101675,0.00043945,-0.992293,7.06374e-06,0.0017764,5.32509e-06,0.00674805,0.00478247,-5.36416e-05
24302496,-0.123912,-0.000501496,-0.00016652,-0.992293,7.06124e-06,0.00177639,7.23532e-06,0.0182315,-0.00563707,-6.87191e-05
24310484,-0.123911,-0.00102409,0.000447778,-0.992293,7.0632e-06,0.00177639,5.28385e-06,0.0065502,0.00516978,-5.37029e-05
24318546,-0.123912,-0.000515518,-0.000163424,-0.992293,7.03647e-06,0.00177638,7.21523e-06,0.0179163,-0.00536764,-6.79888e-05
24404759,-0.123911,-0.0010262,0.000460168,-0.992293,7.05412e-06,0.00177638,5.22601e-06,0.00644418,0.00564874,-5.38959e-05
24412504,-0.123912,-0.000529287,-0.000160344,-0.992293,7.03717e-06,0.00177636,7.19523e-06,0.0176061,-0.0050981,-6.72821e-05
24420524,-0.123911,-0.00101155,0.000484353,-0.992293,7.02998e-06,0.00177636,5.11935e-06,0.00663581,0.00639832,-5.4486e-05
24428455,-0.123912,-0.000542304,-0.00015749,-0.992293,7.02857e-06,0.00177635,7.17565e-06,0.0173111,-0.00483123,-6.66209e-05
24436524,-0.123911,-0.000707732,0.000628902,-0.992293,7.02854e-06,0.00177635,4.465e-06,0.0121626,0.0101931,-6.29923e-05
24444558,-0.123912,-0.000551219,-0.000153358,-0.992293,7.00449e-06,0.00177634,7.14973e-06,0.0170928,-0.00452922,-6.60958e-05
24452415,-0.123912,-0.000127374,-0.000827306,-0.992293,7.00107e-06,0.00177632,9.33856e-06,0.0269624,-0.0164939,-0.000101088
24460451,-0.123912,-0.000563063,-0.000150987,-0.992293,7.0051e-06,0.00177632,7.13142e-06,0.0168218,-0.00426881,-6.55093e-05
24468450,-0.123912,-9.85213e-05,-0.000797708,-0.992293,6.97664e-06,0.00177631,9.20668e-06,0.0274173,-0.0156045,-0.000100895
24476541,-0.123912,-0.000575251,-0.000149045,-0.992293,6.99628e-06,0.00177631,7.1147e-06,0.0165451,-0.00401767,-6.49316e-05
24484645,-0.123913,-9.30601e-05,-0.000782237,-0.992293,6.97715e-06,0.00177629,9.13477e-06,0.0274512,-0.0150471,-0.000100118
24492674,-0.123906,5.58594e-05,-3.1546e-05,-0.992294,0.00712077,0.0165491,-0.00154892,-0.00351288,-0.132808,-0.0230667
24500686,-0.123907,-0.000387858,-0.000754351,-0.992293,0.0130254,0.000560366,0.000256004,0.116003,0.19828,0.0257928
24508622,-0.123908,-0.000408363,-0.00151508,-0.992292,-0.0102319,-0.00544731,0.000125483,0.0104841,0.106801,-0.000169927
24516608,-0.123903,-0.000110335,-0.000765103,-0.992294,-0.00549708,0.0132748,-0.00145056,-0.0660731,-0.248418,-0.02415
24524786,-0.123903,-0.000816544,-0.00118055,-0.992293,0.00760424,0.000180138,0.000313199,0.0786145,0.0390575,0.0251161
24532655,-0.123905,-0.000660613,-0.00193454,-0.992292,-0.0096276,-0.00500669,0.000171923,0.00913201,0.0247033,-0.000734531
24540735,-0.123907,-0.000493969,-0.00122168,-0.992293,0.0163509,0.00706432,0.000454203,-0.00558983,-0.174254,0.00163708
24645006,-0.123907,-0.00082045,-0.00192404,-0.992292,-0.00505864,-0.00504008,0.000254904,0.0535034,0.101269,-0.000862687
24652951,-0.123909,-0.000612311,-0.00121082,-0.992293,0.0136504,0.00474132,0.000481821,-0.00173727,-0.112956,0.0016309
24660918,-0.12391,-0.000854754,-0.00193168,-0.992291,-0.00906659,-0.00612519,0.00027592,0.0381974,0.086924,-0.00112801
24668776,-0.123912,-0.000637915,-0.00121134,-0.992292,0.0116371,0.0045868,0.000499047,-0.00981975,-0.151734,0.00132953
24676927,-0.123907,-0.000448245,-0.000430807,-0.992294,-0.00199814,0.00873365,-0.00123419,0.0113253,-0.0371834,-0.024691
24685001,-0.123909,-0.000799143,-0.00113448,-0.992293,-0.00185895,-0.00491356,0.000429617,0.0655813,0.12327,0.0245588
24693014,-0.123911,-0.000493967,-0.000431957,-0.992293,0.00839551,0.00160356,0.000575982,0.000700407,-0.0622341,0.00131611
24701128,-0.123913,-0.000600764,-0.0011639,-0.992292,-0.0149778,-0.00774785,0.0003462,0.0215309,0.0595914,-0.00186689
24708874,-0.123915,-0.000390112,-0.000432225,-0.992293,0.00914034,0.00433796,0.000539838,-0.0150437,-0.191302,0.00111596
24717005,-0.12391,-0.000322524,0.000373261,-0.992293,-0.00181915,0.00877748,-0.00121273,0.0164489,-0.0401444,-0.0248652
24825171,-0.123912,-0.000662767,-0.000340093,-0.992293,-0.000962323,-0.0049618,0.000456098,0.0745494,0.154701,0.0242464
24832994,-0.123914,-0.000249778,0.000304753,-0.992293,0.00883156,0.00145162,0.000587692,0.0102125,-0.0203705,0.00131928
24841037,-0.123916,-0.000386799,-0.00041993,-0.992293,-0.0151604,-0.00793697,0.00036084,0.0275246,0.0949487,-0.00199032
24849098,-0.123918,-0.000173539,0.000313513,-0.992292,0.00864626,0.00416748,0.000539333,-0.011348,-0.167862,0.00136711
24857134,-0.123913,-0.00015514,0.00112525,-0.992292,-0.00230364,0.00865117,-0.0012235,0.0178536,-0.025866,-0.0248268
24864950,-0.123915,-0.000485476,0.000408862,-0.992293,-0.00128414,-0.00503767,0.000465139,0.0757341,0.164964,0.0239624
24873108,-0.123917,1.3936e-05,0.000992672,-0.992292,0.00868482,0.00141521,0.000589708,0.0133102,-0.0113597,0.00133172
24881087,-0.123919,-0.000137447,0.000272033,-0.992292,-0.0151871,-0.00794983,0.000367904,0.0306173,0.105467,-0.00215554
24889058,-0.123921,7.04228e-05,0.00100768,-0.992292,0.00867395,0.00416703,0.00053664,-0.0080932,-0.155642,0.00160257
24897025,-0.123916,-4.92409e-05,0.00181634,-0.992291,-0.00226382,0.00865289,-0.00123493,0.0186065,-0.0129251,-0.0247908
24904938,-0.123918,-0.00036733,0.00109354,-0.992292,-0.0012547,-0.00503547,0.000472215,0.0768304,0.178425,0.0237051
25004753,-0.12392,0.000372644,0.00133884,-0.992291,0.00869905,0.00141599,0.000594162,0.0199201,-0.00380686,0.00132561
25012590,-0.123921,0.000188269,0.000626268,-0.992292,-0.0151832,-0.00795082,0.00036559,0.0365467,0.112999,-0.00226365
25020622,-0.123923,0.000373909,0.00136788,-0.992291,0.00867111,0.00416625,0.000537913,-0.00263435,-0.148183,0.00172744
25028525,-0.123919,-1.91164e-05,0.00209677,-0.99229,-0.00226712,0.00865212,-0.00123939,0.0189216,-0.00781552,-0.0247735
25036568,-0.123922,-0.000333053,0.00137169,-0.992291,-0.00125794,-0.00503653,0.000475013,0.0772289,0.183457,0.0235919
25044599,-0.123923,0.000457306,0.00130015,-0.992291,0.00869671,0.00141523,0.000595751,0.0220619,-0.00484623,0.00132169
25052676,-0.123925,0.000177499,0.000576455,-0.992291,-0.00484115,-0.00545367,0.00047521,0.0636825,0.164908,-0.00262409
25060464,-0.123927,0.000404852,0.00130575,-0.99229,0.00867057,0.00416601,0.000539136,0.00340255,-0.0756161,0.000479691
25068694,-0.123923,9.36161e-06,0.00203351,-0.99229,-0.00226629,0.00865323,-0.00123815,0.0200322,-0.00943669,-0.0247642
25076618,-0.123926,-0.000309878,0.00131099,-0.992291,-0.00125773,-0.00503714,0.000474317,0.078241,0.181868,0.0235965
25084535,-0.12392,0.000116467,0.00199784,-0.99229,-0.00536538,0.00694683,-0.00122294,-0.0502897,-0.134591,-0.0468352
25092477,-0.123923,-0.000180673,0.00128103,-0.992291,-0.00484065,-0.00545363,0.000486413,0.0652773,0.155909,0.0234752
25186088,-0.123924,0.00012723,0.00198757,-0.99229,0.00721811,0.00149228,0.000594356,0.00811561,-0.0361678,0.00140661
25193790,-0.123918,0.000752654,0.00250203,-0.992289,-0.0114975,0.00812571,-0.0013092,0.00365533,-0.0155223,-0.0171099
25201927,-0.123921,0.000241859,0.00189432,-0.99229,-0.000115696,-0.00277391,0.000452471,0.0811789,0.09132,0.0235817
25210010,-0.123924,-0.000505675,0.00151864,-0.99229,0.0129436,0.00239847,0.000560577,0.0229117,-0.0020253,0.00147539
25217759,-0.12392,-0.000393005,0.000755017,-0.992292,-0.00536557,0.00691943,-0.00119922,0.00641769,0.0294268,-0.0249047
25226019,-0.123922,-0.000691641,3.90664e-05,-0.992292,-0.00497539,-0.00549258,0.000476596,0.0589492,0.133506,0.0238686
25233768,-0.123917,-0.000283426,0.000764892,-0.992292,-0.0121748,0.0080073,-0.00126546,-0.0467264,-0.135375,-0.0245086
25241751,-0.123919,-0.000857488,0.000219869,-0.992292,-0.000819026,-0.00283353,0.000439758,0.0616657,0.0483399,0.023973
25249757,-0.123921,-0.000780219,0.000966819,-0.992291,0.0126087,0.00239527,0.000556361,0.0172218,-0.0258013,0.00150037
25257833,-0.123916,-0.000429765,0.000283889,-0.992293,-0.00537282,0.00695071,-0.00119367,0.00604706,0.010982,-0.0248666
25265819,-0.123919,-0.000749769,-0.000422663,-0.992292,-0.004832,-0.00545613,0.000470795,0.0589327,0.12008,0.0239726
25369303,-0.123913,-0.000360275,0.000314178,-0.992293,-0.0120186,0.00804033,-0.00125829,-0.0466622,-0.145028,-0.0246245
25377077,-0.123916,-0.000970008,-0.000189466,-0.992292,-0.000714385,-0.00281499,0.000437188,0.0611182,0.0409203,0.0240102
25385032,-0.12391,-0.000669285,0.000552013,-0.992293,-0.00225878,0.00866093,-0.00120822,-0.0439547,-0.195927,-0.0472286
25393076,-0.123906,-0.000953796,-0.000179995,-0.992293,-0.00536379,0.00695531,-0.00118124,0.0258133,0.0393375,0.00023259
25401020,-0.123909,-0.00137199,-0.000902163,-0.992292,0.00869719,0.00141046,0.000575411,0.057686,0.0874631,0.0503172
25409059,-0.123904,-0.000862574,-0.000254349,-0.992294,-0.0120314,0.00804144,-0.00123839,-0.0205671,-0.0571546,-0.0173102
25417131,-0.123906,-0.00149551,-0.000727029,-0.992293,-0.000724173,-0.00281716,0.000434453,0.0525696,0.0286141,0.0240928
25425071,-0.123907,-0.00128904,-6.72848e-06,-0.992293,0.0126511,0.00240171,0.000551384,0.0107157,-0.0455577,0.0014409
25433129,-0.123903,-0.000581679,-0.000306683,-0.992294,-0.00536386,0.0069563,-0.00118394,0.00547985,-0.00084256,-0.0248422
25441205,-0.123905,-0.00104606,-0.000999098,-0.992293,0.00869608,0.00141006,0.000581346,0.0646992,0.0858353,0.0502634
25449173,-0.123907,-0.00112718,-0.00173469,-0.992292,-0.0151816,-0.00795696,0.000354664,0.0195563,0.0604476,-0.00179394
25457204,-0.123908,-0.00094718,-0.000950854,-0.992293,-0.000723808,-0.00281755,0.000432767,0.00861037,-0.105276,-0.00010462
25465263,-0.12391,-0.000901939,-0.000202016,-0.992293,0.0126507,0.00240144,0.000562432,0.0191349,-0.0488618,0.00141526
25581781,-0.123906,-0.000182913,-0.000472395,-0.992294,-0.00536209,0.00695743,-0.00118649,0.0140299,-0.00353701,-0.0248434
25589703,-0.1239,-0.000874459,-0.000873744,-0.992294,-0.0175061,0.0147037,-0.00124594,0.0419675,0.0214708,0.00315873
25597704,-0.123898,0.000758228,-0.00114557,-0.992294,-0.0233214,-0.217213,-0.00130356,-0.169375,0.0371148,-4.03131
25605775,-0.123899,-0.000271514,-0.000612797,-0.992295,-0.0202368,0.0885691,0.000476785,0.486039,-0.209462,8.10685
25613867,-0.1239,-0.000892622,-0.00024552,-0.992294,-0.00432786,-0.0230406,0.000202984,0.515332,-0.182125,0.00136826
25621784,-0.1239,-4.34836e-05,-0.000393235,-0.992295,0.00529974,-0.015287,0.000106956,-0.267673,0.00213379,-0.0019897
25629710,-0.123901,0.000629971,-0.000822419,-0.992294,0.00309177,0.00185543,8.84056e-05,-0.185014,0.0866463,-0.00134904
25637815,-0.123901,0.000935725,-0.00155753,-0.992293,0.00148378,0.00480842,8.19904e-05,-0.0211805,0.0584339,-0.000954133
25645645,-0.1239,0.000122084,-0.00161655,-0.992293,-0.00127454,0.00418983,4.41392e-05,0.0656652,0.00558642,-0.000839056
25653748,-0.123899,-0.000559062,-0.00117519,-0.992294,-0.00120008,0.00236528,2.74559e-05,0.0819159,-0.035964,-0.000597087
25661909,-0.123898,-0.0010855,-0.000566133,-0.992294,-0.000486378,0.00104238,1.70791e-05,0.0548606,-0.0387498,-0.00036637
25669649,-0.123897,-0.00142338,0.000161995,-0.992294,-0.000133241,0.000670159,1.32363e-05,0.0297728,-0.0249084,-0.000226107
25677774,-0.123896,-0.00104783,0.000866227,-0.992294,0.000384168,0.000587307,7.99025e-06,0.0176056,-0.0035163,-0.00017931
25685619,-0.123896,-0.00046755,0.000317717,-0.992295,0.000381536,0.000905028,7.76145e-06,0.0182776,-0.00542423,-0.000158315
25789560,-0.123896,-0.000107023,-0.000395088,-0.992295,0.000295852,0.00122311,8.86391e-06,0.0244154,-0.0152519,-0.000155675
25797724,-0.123896,-0.000535905,0.000284379,-0.992295,0.00021357,0.00146127,6.59644e-06,0.0145401,-0.00140541,-0.000102833
25805539,-0.123897,-0.000329228,-0.000487512,-0.992295,0.000152944,0.00161094,8.7978e-06,0.0214257,-0.0149413,-0.000111334
25813502,-0.123896,-0.000616728,0.000263204,-0.992295,0.00010816,0.00169157,6.23036e-06,0.0149153,-0.000392976,-7.75666e-05
25821586,-0.123897,-0.000422615,-0.00051145,-0.992295,7.31536e-05,0.00172899,8.73578e-06,0.0210981,-0.0146219,-9.3334e-05
25829449,-0.123896,-0.000636918,0.00026326,-0.992295,4.62653e-05,0.0017446,6.0497e-06,0.0152061,0.000102472,-6.77101e-05
25837464,-0.123897,-0.000412966,-0.000503341,-0.992295,2.74443e-05,0.0017517,8.58472e-06,0.0213772,-0.0142302,-8.73767e-05
25845454,-0.123896,-0.000632934,0.00026999,-0.992295,1.60134e-05,0.00175668,5.94088e-06,0.0150899,0.000287056,-6.41192e-05
25853554,-0.123897,-0.000394527,-0.000491794,-0.992295,1.01857e-05,0.00176146,8.48366e-06,0.0214638,-0.0139419,-8.51419e-05
25861591,-0.123896,-0.000634904,0.000275472,-0.992295,8.72447e-06,0.00176384,5.87978e-06,0.0148521,0.000473031,-6.26031e-05
25869684,-0.123897,-0.000391147,-0.000483891,-0.992295,7.36744e-06,0.00176998,8.43597e-06,0.0213974,-0.0136275,-8.3776e-05
25877638,-0.123896,-0.000641535,0.000279577,-0.992295,7.45428e-06,0.00177287,5.84842e-06,0.0146502,0.000730664,-6.15941e-05
25967959,-0.123897,-0.000395648,-0.000478617,-0.992295,7.5864e-06,0.0017747,8.40626e-06,0.0212744,-0.0133022,-8.25449e-05
25975867,-0.123896,-0.000649618,0.000283173,-0.992295,7.61868e-06,0.00177572,5.82084e-06,0.0144756,0.00103399,-6.10662e-05
25983782,-0.123897,-0.000400185,-0.000474116,-0.992295,7.51887e-06,0.00177616,8.37717e-06,0.0211629,-0.0129718,-8.16674e-05
25991783,-0.123896,-0.000656988,0.000287863,-0.992295,7.39991e-06,0.00177633,5.79089e-06,0.0142999,0.00135703,-6.07308e-05
25999750,-0.123897,-0.000404382,-0.000469171,-0.992295,7.27464e-06,0.00177635,8.3455e-06,0.0210404,-0.0126404,-8.09051e-05
26007816,-0.123896,-0.000663474,0.0002923,-0.992295,7.19518e-06,0.00177636,5.76231e-06,0.0141291,0.00167031,-6.04938e-05
26015917,-0.123897,-0.000409128,-0.000463523,-0.992295,7.14111e-06,0.00177635,8.31204e-06,0.0208983,-0.0123005,-8.01492e-05
26023922,-0.123896,-0.000669635,0.000296837,-0.992295,7.1326e-06,0.00177637,5.73357e-06,0.0139618,0.00198514,-6.03023e-05
26031938,-0.123897,-0.000414419,-0.000458149,-0.992295,7.11409e-06,0.00177638,8.28019e-06,0.0207464,-0.0119667,-7.9405e-05
26039955,-0.123897,-0.000675504,0.000301396,-0.992295,7.12463e-06,0.00177641,5.70485e-06,0.0138012,0.00230221,-6.01393e-05
26047968,-0.123897,-0.000420024,-0.00045344,-0.992295,7.11851e-06,0.0017764,8.25084e-06,0.020591,-0.0116457,-7.86883e-05
26055976,-0.123897,-0.000681009,0.000306013,-0.992295,7.12081e-06,0.00177642,5.67586e-06,0.0136482,0.00262195,-6.00016e-05
26163145,-0.123897,-0.000425812,-0.000449392,-0.992295,7.10961e-06,0.00177641,8.22396e-06,0.020434,-0.0113378,-7.79972e-05
26171012,-0.123897,-0.000686054,0.000310696,-0.992295,7.11883e-06,0.00177641,5.63912e-06,0.013504,0.00294396,-5.98935e-05
26178905,-0.123897,-0.000431817,-0.000445736,-0.992295,7.09647e-06,0.00177639,8.19856e-06,0.0202736,-0.011038,-7.73207e-05
26186923,-0.123897,-0.000690585,0.000315475,-0.992295,7.1009e-06,0.0017764,5.61639e-06,0.0133695,0.00326909,-5.98116e-05
26195033,-0.123897,-0.000438206,-0.000441832,-0.992295,7.08907e-06,0.00177638,8.17238e-06,0.020105,-0.0107345,-7.66371e-05
26203014,-0.123897,-0.000694408,0.00031996,-0.992295,7.08778e-06,0.00177638,5.58718e-06,0.0132495,0.00359026,-5.97597e-05
26211287,-0.123897,-0.000445113,-0.000437158,-0.992295,7.07541e-06,0.00177637,8.14377e-06,0.0199244,-0.0104172,-7.59266e-05
26219159,-0.123897,-0.000697747,0.000325175,-0.992295,7.08139e-06,0.00177637,5.5551e-06,0.013137,0.00392668,-5.97383e-05
26227159,-0.123897,-0.000452087,-0.000433006,-0.992295,7.06305e-06,0.00177635,8.11705e-06,0.0197438,-0.0101102,-7.52388e-05
26235088,-0.123897,-0.000700401,0.000330883,-0.992295,7.06798e-06,0.00177636,5.52106e-06,0.0130367,0.0042744,-5.975e-05
26243180,-0.123897,-0.000458975,-0.00042972,-0.992295,7.05675e-06,0.00177634,8.09327e-06,0.019567,-0.00981995,-7.45905e-05
26251232,-0.123897,-0.00070208,0.000336497,-0.992295,7.05547e-06,0.00177634,5.48696e-06,0.0129557,0.00462274,-5.97994e-05
26259179,-0.123897,-0.000466082,-0.000426236,-0.992295,7.04327e-06,0.00177633,8.06894e-06,0.0193855,-0.00952633,-7.39405e-05
26267107,-0.123897,-0.000702728,0.000342372,-0.992295,7.049e-06,0.00177633,5.45141e-06,0.0128941,0.00497855,-5.98933e-05
26275265,-0.123897,-0.00047343,-0.000422402,-0.992295,7.03076e-06,0.00177631,8.04351e-06,0.0191984,-0.00922643,-7.32846e-05
26283340,-0.123897,-0.000701814,0.000347458,-0.992295,7.03537e-06,0.00177632,5.41804e-06,0.0128647,0.00532281,-6.00358e-05
26365105,-0.123897,-0.000480599,-0.000419485,-0.992295,7.02432e-06,0.0017763,8.02116e-06,0.0190171,-0.00894404,-7.26706e-05
26373021,-0.123897,-0.000699806,0.000353934,-0.992295,7.02274e-06,0.0017763,5.37933e-06,0.0128533,0.0056969,-6.02299e-05
26380948,-0.123897,-0.000874744,0.00104399,-0.992294,0.0267285,0.0101694,0.000261326,0.0261999,-0.0410252,0.00311135
26389052,-0.123899,-0.00107788,0.000276504,-0.992294,-0.00108727,-0.00470507,0.000192642,0.0575771,0.247943,-0.000710909
26397011,-0.1239,-0.00028506,0.000114877,-0.992295,-0.0136183,-0.00375405,0.000114467,-0.0310463,0.00360139,-0.000728782
26404944,-0.123894,-1.33003e-05,0.000876328,-0.992295,-0.00549731,0.0132698,-0.00149403,-0.0976932,-0.386734,-0.0460588
26412938,-0.123895,-0.00045863,0.000234151,-0.992295,-0.00300122,-0.00447558,0.000246276,0.0648712,0.0830943,0.0163227
26420951,-0.123896,-0.000171231,0.000914228,-0.992295,0.014817,0.00491887,0.000446808,-0.000450475,-0.0663036,0.00217629
26429114,-0.123898,-0.000362869,0.000176728,-0.992295,-0.00874804,-0.00596823,0.000285592,0.0386054,0.130557,-0.00152667
26436933,-0.123899,-0.000115115,0.000885026,-0.992294,0.0116687,0.00475489,0.000476641,-0.00773861,-0.114151,0.00195485
26526789,-0.123894,0.000202358,0.00161587,-0.992294,-0.00191893,0.00887635,-0.00127877,0.0175105,-0.00162303,-0.0245854
26534602,-0.123896,-0.000124623,0.000899113,-0.992295,-0.00168863,-0.00479615,0.000445454,0.073385,0.161291,0.0239243
26542610,-0.123898,-7.50289e-05,0.000146296,-0.992295,-0.0129233,-0.00761225,0.00033482,0.0071757,0.0721757,-0.00160829
26550583,-0.123899,3.80782e-05,0.000940507,-0.992294,-0.000537446,-0.00268129,0.000426181,0.017332,-0.0512246,0.000319452
26558650,-0.123902,-0.000266626,0.0016388,-0.992293,0.0125379,0.00253535,0.000552569,0.0204584,-0.0117962,0.00157617
26566689,-0.123897,-8.74901e-05,0.000888783,-0.992295,-0.00536189,0.00706468,-0.00121473,0.0070015,0.0199721,-0.0249033
26574718,-0.123899,-0.000399405,0.000177606,-0.992295,-0.00467971,-0.00535259,0.000471842,0.060902,0.1314,0.0238923
26582753,-0.123901,-0.0001203,0.000896141,-0.992294,0.00742637,0.0015657,0.000594164,0.00427056,-0.0567985,0.00132012
26590715,-0.123903,-0.000274269,0.000174422,-0.992294,-0.0148601,-0.00778315,0.00037556,0.0280702,0.0821746,-0.0021664
26598756,-0.123898,4.07453e-05,0.000947886,-0.992295,-0.0113776,0.00816198,-0.00127052,-0.0891231,-0.326257,-0.0470582
26606916,-0.123894,-0.000776091,0.00112235,-0.992295,-0.00177425,0.00867888,-0.00121711,0.0252659,-0.00512943,0.00019731
26614959,-0.123897,-0.0010588,0.000383921,-0.992294,-0.00113164,-0.00505347,0.000466945,0.0660591,0.174085,0.024072
26724885,-0.123898,-0.00034811,0.000700916,-0.992295,0.00859687,0.00137938,0.000585874,0.00755543,-0.0115182,0.00131883
26732650,-0.1239,-0.000461558,-2.74446e-05,-0.992295,-0.0153477,-0.00798409,0.000371657,0.0249806,0.100832,-0.0020697
26740771,-0.123902,-0.000233334,0.000702029,-0.992294,0.00854182,0.00414139,0.000535109,-0.0136282,-0.16287,0.00148459
26748782,-0.123897,-0.000168538,0.00150966,-0.992294,-0.00233874,0.00863955,-0.00122902,0.0165903,-0.0204708,-0.0248009
26756714,-0.123899,-0.000487816,0.000787919,-0.992294,-0.00128063,-0.00504061,0.000469378,0.0748242,0.171091,0.0238345
26764814,-0.123901,0.000143429,0.00123418,-0.992294,0.00870149,0.00141524,0.000590928,0.0154092,-0.00695129,0.00133274
26772944,-0.123903,-0.000113017,0.000501143,-0.992294,-0.00483095,-0.00545157,0.000476932,0.0575579,0.163058,-0.00254942
26780893,-0.123905,0.000161372,0.00121302,-0.992293,0.00868342,0.00416726,0.000536108,-0.00170664,-0.077401,0.000459675
26788902,-0.1239,-4.92626e-05,0.00200774,-0.992293,-0.00225954,0.00865285,-0.00123786,0.0183792,-0.00931062,-0.02478
26796871,-0.123903,-0.000362901,0.00128263,-0.992293,-0.00125475,-0.00503595,0.00047417,0.0766801,0.181961,0.023633
26804895,-0.123904,0.00042492,0.00131401,-0.992293,0.00869728,0.00141499,0.000595166,0.0212165,-0.00438474,0.00132313
26813026,-0.123906,0.000148739,0.000588847,-0.992294,-0.00484169,-0.00545334,0.00047565,0.062899,0.165318,-0.00262175
26820982,-0.123908,0.000383386,0.00131576,-0.992293,0.00866974,0.00416551,0.000538649,0.00277169,-0.0752713,0.000480547
26829044,-0.123904,-5.32912e-07,0.00204953,-0.992292,-0.00226709,0.00865265,-0.00123853,0.0196067,-0.00896784,-0.0247684
26836968,-0.123907,-0.00031788,0.0013261,-0.992293,-0.00125819,-0.00503682,0.000474505,0.0778436,0.182326,0.0235979
26844951,-0.123908,0.000471817,0.00134477,-0.992293,0.00869657,0.00141483,0.000595757,0.0224482,-0.0042128,0.00132185
26939273,-0.12391,0.000272785,0.000636611,-0.992293,-0.0151834,-0.00795162,0.000363194,0.0387772,0.112647,-0.00227947
26947132,-0.123905,0.000578972,0.00141753,-0.992293,-0.0120311,0.00803358,-0.00129633,-0.080581,-0.314366,-0.0465192
26955182,-0.123901,-0.000238468,0.00159117,-0.992293,-0.00226601,0.00865499,-0.00122898,0.0337081,-0.00567656,0.000207436
26963166,-0.123904,-0.0005559,0.000868429,-0.992294,-0.00125774,-0.00503778,0.000470042,0.0747272,0.17237,0.023785
26971228,-0.123905,9.31246e-05,0.00129059,-0.992293,0.00869669,0.0014143,0.000589584,0.0156172,-0.0066338,0.00133487
26979341,-0.123899,0.000864978,0.001413,-0.992293,-0.00796853,0.00687005,-0.00121699,0.0168457,-0.00387829,-0.0249537
26987182,-0.123901,0.00044229,0.000766695,-0.992294,-0.00535563,-0.00533124,0.000482164,0.0763923,0.11204,0.0234875
27070642,-0.123896,0.000769452,0.00153386,-0.992294,-0.0114964,0.00812904,-0.00129699,-0.0267487,-0.128823,-0.0242239
27078458,-0.123899,0.00019485,0.000987567,-0.992294,-0.000115913,-0.00277493,0.000447437,0.0826823,0.0732511,0.0237144
27086510,-0.123902,-0.000551987,0.0012654,-0.992294,0.0129434,0.00239743,0.000561447,0.0228396,-0.00733145,0.0014745
27094540,-0.123897,-0.000411549,0.000506871,-0.992295,-0.00536494,0.0069207,-0.00119575,0.00687051,0.0242996,-0.0248867
27102681,-0.1239,-0.000718857,-0.000204308,-0.992294,-0.00497557,-0.00549287,0.000473827,0.0592196,0.128426,0.023925
27110816,-0.123894,-0.000320473,0.000527898,-0.992295,-0.0121739,0.00800889,-0.00126156,-0.0466539,-0.14033,-0.0245691
27118555,-0.123896,-0.000915797,6.81411e-06,-0.992295,-0.000819184,-0.0028339,0.000438564,0.0612588,0.0437764,0.023991
27126518,-0.123898,-0.000829941,0.000752679,-0.992294,0.0126085,0.00239432,0.000556832,0.016989,-0.0303547,0.0014896
27134519,-0.123893,-0.000417339,0.000107762,-0.992295,-0.00537203,0.00695181,-0.0011915,0.00692725,0.00732861,-0.0248591
27142478,-0.123896,-0.000747567,-0.000594462,-0.992295,-0.00483221,-0.00545636,0.000468659,0.0596029,0.116468,0.0240025
27150552,-0.123891,-0.00036638,0.000147173,-0.992296,-0.0120177,0.00804171,-0.00125614,-0.0461584,-0.148549,-0.0246659
27158530,-0.123893,-0.000993643,-0.000333009,-0.992295,-0.000714555,-0.00281529,0.000436378,0.0612186,0.0377974,0.0240162
27166605,-0.123894,-0.000907495,0.000411841,-0.992295,0.0126562,0.0024026,0.000557438,0.0169521,-0.0361642,0.00146941
27174500,-0.12389,-0.000395367,-0.00015735,-0.992296,-0.00536198,0.00695569,-0.00118825,0.00855735,0.00280138,-0.0248481
27182495,-0.123892,-0.000741629,-0.000851401,-0.992295,-0.00484129,-0.00545795,0.000465331,0.0608243,0.111499,0.0240443
27271123,-0.123887,-0.000372905,-0.000102834,-0.992296,-0.0120295,0.00804173,-0.00125323,-0.0452629,-0.153762,-0.0247284
27279010,-0.123888,-0.00102886,-0.000543359,-0.992295,-0.000724706,-0.00281714,0.000435172,0.0614385,0.0330696,0.0240216
27286968,-0.12389,-0.000946307,0.000201822,-0.992296,0.0126504,0.0024014,0.000558146,0.0170943,-0.0409294,0.00145409
27294998,-0.123886,-0.00035238,-0.000280782,-0.992296,-0.00536278,0.00695679,-0.00118694,0.0100804,-4.84212e-05,-0.0248413
27303060,-0.123888,-0.000711032,-0.000968032,-0.992296,-0.00484093,-0.00545843,0.000463568,0.0621057,0.108782,0.0240497
27310877,-0.123883,-0.000350888,-0.000214841,-0.992297,-0.0120272,0.00804324,-0.00125278,-0.0441626,-0.156354,-0.0247489
27318870,-0.123877,-0.000878764,0.000497574,-0.992297,-0.013388,0.0173287,-0.00130945,0.0453017,-0.0354091,0.00319709
27326929,-0.123875,0.000650949,1.01565e-05,-0.992298,-0.017885,-0.216315,-0.000814752,-0.148742,0.0846983,-4.03147
27334847,-0.123876,-0.000185597,0.000305071,-0.992298,-0.00969007,0.0200722,0.000256752,0.634107,-0.1223,4.05505
27342902,-0.123877,-0.000816767,0.000645739,-0.992297,-0.00338796,-0.0232078,0.000227641,0.285655,-0.090551,0.000129687
27350945,-0.123877,8.20986e-05,0.000486352,-0.992297,0.00373485,-0.0279171,0.000156627,-0.230931,0.00506202,-0.00176734
27358978,-0.123877,0.000791379,0.000121584,-0.992297,0.00235814,0.00183736,7.76082e-05,-0.236929,0.0841034,-0.00158495
27366868,-0.123877,0.00110574,-0.000607522,-0.992297,0.00102013,0.00482579,6.6994e-05,-0.0231748,0.0601026,-0.00107326
27451589,-0.123876,0.000304245,-0.000758038,-0.992297,-0.0011255,0.00425647,3.5146e-05,0.0655634,0.0116009,-0.000877319
27459491,-0.123876,-0.000439331,-0.000432458,-0.992298,-0.000943934,0.00242693,2.29053e-05,0.0822279,-0.0238371,-0.000553904
27467477,-0.123875,-0.00108369,4.96497e-05,-0.992297,-0.000277011,0.00108871,1.50038e-05,0.0536707,-0.025502,-0.000311809
27475419,-0.123875,-0.00151854,0.000722438,-0.992296,0.0002466,0.00053481,9.85417e-06,0.0218583,-0.0102474,-0.0001859
27483502,-0.123874,-0.000737283,0.000560184,-0.992297,0.000418094,0.000603903,8.23745e-06,0.0210211,-0.00492978,-0.000184529
27491467,-0.123875,-0.000234317,-6.02731e-05,-0.992298,0.000373913,0.000909436,8.38596e-06,0.023921,-0.0110436,-0.000174292
27499381,-0.123875,-0.000723465,0.000577317,-0.992297,0.000275382,0.00122218,6.12237e-06,0.0100698,0.00264204,-0.000118207
27507406,-0.123875,-0.000293621,-9.46875e-05,-0.992298,0.000195103,0.00145966,7.62319e-06,0.0200942,-0.00812372,-0.000115442
27515451,-0.123875,-0.000892267,0.000443998,-0.992297,0.000141241,0.0016105,5.78539e-06,0.00809202,0.00173873,-7.97796e-05
27523540,-0.123875,-0.000356769,-0.000145355,-0.992298,0.000102703,0.00169235,7.51851e-06,0.0208691,-0.00780038,-9.13718e-05
27531514,-0.123875,-0.000971523,0.000376701,-0.992297,7.17783e-05,0.00173044,5.80386e-06,0.00818338,0.00128759,-6.31267e-05
27539517,-0.123875,-0.000379945,-0.000155284,-0.992298,5.85032e-05,0.00174003,7.42249e-06,0.0211595,-0.00740975,-8.21585e-05
27621142,-0.123875,-0.000983846,0.000378081,-0.992297,2.85029e-05,0.0017529,5.71864e-06,0.00810028,0.00159933,-5.76329e-05
27629032,-0.123875,-0.000386112,-0.000146118,-0.992298,1.68538e-05,0.00175745,7.28553e-06,0.0208764,-0.00714553,-7.72689e-05
27636953,-0.123875,-0.000986152,0.000393252,-0.992297,1.31912e-05,0.00175966,5.62325e-06,0.00779038,0.00193602,-5.51331e-05
27645050,-0.123875,-0.000396397,-0.000139262,-0.992298,8.03492e-06,0.00176625,7.23068e-06,0.0204761,-0.00694721,-7.51626e-05
27652978,-0.123875,-0.000992616,0.000402674,-0.992297,7.34131e-06,0.00177004,5.56951e-06,0.00749995,0.00222096,-5.39851e-05
27660997,-0.123875,-0.000410309,-0.000137651,-0.992298,7.30429e-06,0.00177158,7.20641e-06,0.0201281,-0.00676748,-7.36609e-05
27669042,-0.123875,-0.00100956,0.000402376,-0.992297,7.53777e-06,0.0017747,5.55765e-06,0.00714618,0.00240718,-5.33827e-05
27677039,-0.123875,-0.000426021,-0.000136522,-0.992298,7.59891e-06,0.0017757,7.20083e-06,0.0198123,-0.00653421,-7.25168e-05
27685063,-0.123875,-0.00102674,0.000400684,-0.992297,7.56025e-06,0.00177618,5.55386e-06,0.0068068,0.00258644,-5.29557e-05
27692961,-0.123875,-0.000440577,-0.000135624,-0.992298,7.44849e-06,0.00177633,7.18796e-06,0.0195062,-0.00630192,-7.1635e-05
27701058,-0.123875,-0.00104366,0.000400631,-0.992297,7.35318e-06,0.00177637,5.54541e-06,0.00644925,0.00279042,-5.2704e-05
27709075,-0.123875,-0.00045545,-0.000134022,-0.992298,7.25601e-06,0.00177636,7.17296e-06,0.0191793,-0.00606356,-7.08022e-05
27774624,-0.123875,-0.0010598,0.000400015,-0.992297,7.21785e-06,0.00177637,5.53915e-06,0.00610086,0.00298109,-5.25175e-05
27782523,-0.123875,-0.000469592,-0.000133064,-0.992298,7.18675e-06,0.00177637,7.16025e-06,0.0188654,-0.00583765,-7.00459e-05
27790579,-0.123875,-0.00107586,0.000397787,-0.992297,7.18455e-06,0.00177639,5.53872e-06,0.00575782,0.00314083,-5.23517e-05
27798529,-0.123875,-0.000483459,-0.000132445,-0.992298,7.17494e-06,0.0017764,7.14887e-06,0.0185587,-0.00561678,-6.93269e-05
27806473,-0.123875,-0.00109335,0.000394429,-0.992297,7.18747e-06,0.00177641,5.54286e-06,0.00539067,0.00327584,-5.21845e-05
27814407,-0.123875,-0.000497706,-0.000131593,-0.992298,7.17117e-06,0.00177641,7.13689e-06,0.0182447,-0.00539162,-6.86075e-05
27822503,-0.123875,-0.00111352,0.000389495,-0.992297,7.17927e-06,0.00177642,5.55381e-06,0.00497541,0.00337394,-5.19966e-05
27830541,-0.123875,-0.00051278,-0.000130144,-0.992298,7.16675e-06,0.00177641,7.12308e-06,0.0179132,-0.0051569,-6.78699e-05
27838577,-0.123875,-0.00113804,0.00037883,-0.992297,7.16668e-06,0.0017764,5.58685e-06,0.00448956,0.00335003,-5.17521e-05
27846647,-0.123875,-0.000527692,-0.000129061,-0.992298,7.15235e-06,0.00177639,7.11055e-06,0.0175856,-0.00492899,-6.71596e-05
27854717,-0.123875,-0.00117998,0.000346648,-0.992297,7.1595e-06,0.00177639,5.70314e-06,0.00371674,0.00286478,-5.12757e-05
27862686,-0.123876,-0.00054365,-0.000127872,-0.992298,7.13931e-06,0.00177638,7.09812e-06,0.0172374,-0.00470147,-6.64283e-05
27870721,-0.123876,-0.000119434,-0.000802403,-0.992297,7.12423e-06,0.00177636,9.28884e-06,0.0271161,-0.0166762,-0.000101821
27878719,-0.123876,-0.000555129,-0.000126133,-0.992298,7.13294e-06,0.00177636,7.08176e-06,0.016975,-0.00445249,-6.58553e-05
27886783,-0.123876,-6.8568e-05,-0.000755724,-0.992297,7.11148e-06,0.00177635,9.08745e-06,0.0279578,-0.0154009,-0.000102098
27894820,-0.123876,-0.000567807,-0.000124146,-0.992298,7.11961e-06,0.00177635,7.0651e-06,0.0166886,-0.00420158,-6.52533e-05
27902861,-0.123876,-6.35812e-05,-0.000739452,-0.992297,7.10515e-06,0.00177634,9.0128e-06,0.0279805,-0.014829,-0.000101282
27970345,-0.123876,-0.000580871,-0.000122097,-0.992298,7.1072e-06,0.00177634,7.0484e-06,0.0163946,-0.00395029,-6.46518e-05
27978253,-0.123876,-6.80725e-05,-0.000729542,-0.992297,7.09169e-06,0.00177632,8.96467e-06,0.0278342,-0.014404,-0.000100233
27986161,-0.123876,-0.000594573,-0.000119493,-0.992298,7.10085e-06,0.00177633,7.02995e-06,0.0160869,-0.00368989,-6.40416e-05
27994231,-0.123876,-7.62549e-05,-0.000722464,-0.992297,7.07921e-06,0.00177631,8.92813e-06,0.027623,-0.014043,-9.91107e-05
28003387,-0.123876,-0.000608431,-0.000116823,-0.992298,7.08737e-06,0.00177631,7.01138e-06,0.0157759,-0.00342856,-6.34418e-05
28011376,-0.123876,-8.6571e-05,-0.000716448,-0.992297,7.07284e-06,0.0017763,8.89618e-06,0.0273729,-0.013708,-9.79362e-05
28019385,-0.123876,-0.000622485,-0.000114014,-0.992298,7.07488e-06,0.0017763,6.99244e-06,0.0154609,-0.00316491,-6.28502e-05
28027305,-0.123876,-0.000798542,0.000575503,-0.992297,0.0267288,0.010168,0.000277719,0.0287893,-0.0499028,0.00306229
28035251,-0.123878,-0.0011118,-0.000215676,-0.992297,0.0130259,0.000560001,0.000234794,0.0937294,0.274934,-0.000671455
28043277,-0.123872,-0.000366112,-3.51695e-05,-0.992298,-0.00647826,0.0110343,-0.00143359,-0.0305947,-0.019274,-0.0159395
28051231,-0.123874,-0.000902894,-0.000642262,-0.992297,0.00340479,-0.000945377,0.00032478,0.0558687,0.0497513,0.0249337
28130674,-0.123868,-0.000500213,5.34448e-05,-0.992299,-0.00509861,0.00969125,-0.00133674,-0.0384962,-0.116612,-0.0239994
28138530,-0.12387,-0.000936788,-0.00062014,-0.992298,0.00185445,-0.00233909,0.000368315,0.055772,0.0714352,0.0246754
28146456,-0.123865,-0.000518668,7.2344e-05,-0.992299,-0.00656888,0.00931482,-0.00131041,-0.0401022,-0.114239,-0.0242589
28154616,-0.123867,-0.000974755,-0.000586239,-0.992298,0.00139585,-0.00241603,0.000389408,0.0602032,0.0742861,0.0245203
28162401,-0.123868,-0.000741109,0.000124951,-0.992298,0.0127368,0.00263161,0.000535525,0.0125213,-0.028715,0.00163733
28170429,-0.123863,1.01847e-05,-4.0067e-05,-0.992299,-0.00569583,0.00717745,-0.00121752,0.00740406,-0.0030826,-0.0248072
28178503,-0.123865,-0.000358426,-0.000721276,-0.992299,-0.00484802,-0.00522936,0.000454239,0.0610339,0.101841,0.0241188
28186309,-0.12386,-2.93088e-06,3.28068e-05,-0.9923,-0.0117102,0.00822282,-0.00126659,-0.0433797,-0.156809,-0.0246978
28194515,-0.123862,-0.000802576,0.000188285,-0.992299,0.00908038,0.00433103,0.000525384,0.0579022,-0.0100638,0.0503546
28278909,-0.123865,-0.00139626,-0.000416113,-0.992298,0.0129918,0.00249515,0.000548844,0.0220758,0.000543008,0.000276495
28286796,-0.123861,-0.000675742,-0.000681592,-0.992299,-0.00518072,0.00700165,-0.00118263,0.00163015,-0.000484881,-0.0248921
28294741,-0.123863,-0.000993117,-0.00138957,-0.992298,-0.00477529,-0.00542894,0.000460699,0.0542575,0.107356,0.0243229
28302626,-0.123858,-0.000609335,-0.000650271,-0.9923,-0.0120416,0.00804477,-0.00123731,-0.051639,-0.15939,-0.0250005
28310740,-0.12386,-0.00127027,-0.00108227,-0.992298,-0.000751107,-0.00281197,0.000431687,0.0546847,0.0264712,0.0241754
28318593,-0.123861,-0.00109599,-0.000353855,-0.992299,0.0126276,0.00240239,0.000558436,0.0121034,-0.048298,0.00140426
28326705,-0.123857,-0.000361513,-0.000581413,-0.9923,-0.00538437,0.00695073,-0.00118597,0.00718804,-0.00234394,-0.0249057
28334554,-0.123859,-0.000709988,-0.00127367,-0.992299,-0.00484762,-0.00545257,0.000460608,0.059385,0.106429,0.0242271
28342596,-0.123854,-0.000343762,-0.000524048,-0.9923,-0.0120357,0.00803803,-0.00124554,-0.0466683,-0.158708,-0.024925
28350584,-0.123856,-0.00101686,-0.000938849,-0.992299,-0.000719955,-0.00281288,0.000432747,0.0595929,0.0287274,0.0241222
28358492,-0.123857,-0.000908007,-0.000196684,-0.9923,0.0126576,0.00240322,0.000562078,0.0157971,-0.0451993,0.00141479
28366662,-0.123853,-0.000229883,-0.00055492,-0.9923,-0.00536419,0.00695206,-0.00118744,0.01013,-0.00165105,-0.0249008
28374648,-0.123855,-0.000591534,-0.00124036,-0.992299,-0.00484009,-0.00545345,0.000460045,0.0620666,0.107221,0.0241893
28382531,-0.12385,-0.000233701,-0.000485973,-0.992301,-0.0120339,0.00803804,-0.00124922,-0.0441941,-0.157952,-0.0248893
28475533,-0.123851,-0.000912763,-0.000890859,-0.9923,-0.000722996,-0.00281424,0.000433,0.0619261,0.0295453,0.0240954
28483357,-0.123853,-0.000837186,-0.000143996,-0.9923,0.012654,0.0024021,0.000563443,0.0174547,-0.0444478,0.00141825
28491465,-0.123849,-0.000182281,-0.000543239,-0.992301,-0.00536563,0.00695239,-0.00118782,0.0114259,-0.00178988,-0.0248944
28499446,-0.123851,-0.000550451,-0.0012251,-0.9923,-0.00484123,-0.00545426,0.000459796,0.0632344,0.107128,0.024166
28507321,-0.123846,-0.000196911,-0.000468363,-0.992301,-0.012033,0.00803888,-0.00125083,-0.0431225,-0.157996,-0.0248695
28515512,-0.123847,-0.000879613,-0.000866564,-0.992301,-0.000723044,-0.00281467,0.000433134,0.0629215,0.0296304,0.0240785
28523393,-0.123849,-0.00081857,-0.000118152,-0.992301,0.0126537,0.00240175,0.000563717,0.0181619,-0.0443577,0.00142044
28531425,-0.123845,-0.000171356,-0.000529731,-0.992301,-0.00536472,0.00695326,-0.00118781,0.0120108,-0.00195492,-0.0248871
28539437,-0.123846,-0.000542647,-0.00120983,-0.992301,-0.0048412,-0.00545482,0.000459817,0.0637586,0.106988,0.0241477
28547463,-0.123849,-0.00033454,-0.000467796,-0.992301,0.00721861,0.00148848,0.000599742,0.00508122,-0.0846408,0.00110836
28555395,-0.12385,-0.000532193,-0.00117759,-0.9923,-0.0150218,-0.00783289,0.000357456,0.0277207,0.0520833,-0.00200313
28625992,-0.123852,-0.000341792,-0.000440971,-0.992301,0.00932872,0.00422956,0.000550371,-0.00928686,-0.186874,0.00107305
28633872,-0.123847,-0.000355821,0.000371021,-0.992301,-0.00180034,0.00867249,-0.00120464,0.0194622,-0.0333945,-0.0248574
28641794,-0.123849,-0.000698247,-0.00034015,-0.992301,-0.00112977,-0.00506071,0.000459336,0.0764377,0.158043,0.0241742
28649724,-0.123851,-0.000315949,0.000324118,-0.992301,0.00860953,0.00137564,0.000588352,0.0107645,-0.0209939,0.00130212
28657726,-0.123853,-0.000456694,-0.000399366,-0.9923,-0.0153339,-0.00798579,0.000363761,0.027681,0.0916917,-0.0020176
28665910,-0.123855,-0.000246792,0.000335261,-0.9923,0.008548,0.00413918,0.000539086,-0.0112606,-0.171824,0.00137258
28673827,-0.12385,-0.000227647,0.00114839,-0.9923,-0.00233278,0.00864433,-0.00122102,0.0180443,-0.029424,-0.0247721
28681769,-0.123853,-0.000562589,0.000434214,-0.9923,-0.00128154,-0.00504373,0.000465679,0.0759477,0.162138,0.0239069
28689814,-0.123854,-0.000100745,0.00104657,-0.9923,0.0086988,0.00141209,0.000587583,0.0128259,-0.0130992,0.00133494
28697869,-0.123856,-0.000250445,0.000325487,-0.9923,-0.0151719,-0.00795065,0.000371605,0.0302025,0.104053,-0.00217298
28705858,-0.123858,-4.18556e-05,0.00106086,-0.992299,0.00868084,0.00416502,0.000534687,-0.00845013,-0.156912,0.00162522
28713749,-0.123853,-0.000141397,0.00187173,-0.992299,-0.00225728,0.0086573,-0.00123344,0.0186235,-0.0141208,-0.0247314
28721706,-0.123856,-0.000460874,0.00114966,-0.992299,-0.00125563,-0.00503839,0.000472733,0.0767992,0.177164,0.0236475
28787140,-0.123857,0.000252856,0.0014588,-0.992299,0.00869592,0.00141271,0.000591372,0.0192236,-0.0039255,0.00133229
28795162,-0.123859,7.23381e-05,0.000745154,-0.9923,-0.0151841,-0.00795245,0.000370491,0.035907,0.112819,-0.00229236
28803071,-0.123861,0.000260825,0.00148604,-0.992298,0.00866813,0.00416386,0.000535165,-0.00319251,-0.148359,0.00177132
28811132,-0.123856,-0.00011114,0.00222498,-0.992298,-0.00226448,0.00865648,-0.00123917,0.0187395,-0.0077611,-0.024711
28819161,-0.123859,-0.000424465,0.00149963,-0.992299,-0.00125894,-0.00503893,0.000476234,0.0770491,0.183499,0.0235105
28827209,-0.12386,0.000365514,0.0014232,-0.992299,0.00869504,0.00141248,0.000593397,0.0218975,-0.00487956,0.00132767
28835047,-0.123862,0.000168937,0.00071437,-0.992299,-0.0151829,-0.00795301,0.000367013,0.0382636,0.111961,-0.00229861
28843061,-0.123864,0.000345651,0.0014584,-0.992298,0.00866866,0.00416393,0.000536893,-0.00107018,-0.149148,0.00176949
28851082,-0.12386,-7.22551e-05,0.00217448,-0.992297,-0.0022631,0.00865769,-0.00123822,0.0200241,-0.00909266,-0.0247019
28859094,-0.123863,-0.000391156,0.00145178,-0.992298,-0.00125864,-0.00503948,0.000475653,0.0782294,0.182198,0.0235088
28934203,-0.123864,0.000397061,0.00148583,-0.992298,0.0086947,0.00141227,0.000593578,0.0227673,-0.0040298,0.00132719
28941992,-0.123858,0.00117395,0.00152249,-0.992298,-0.00796453,0.0068738,-0.00122257,0.0242777,-0.00293561,-0.0249264
28949954,-0.12386,0.000724581,0.000896076,-0.992299,-0.00535642,-0.0053332,0.000480561,0.0832936,0.113302,0.0233575
28958013,-0.123857,0.0023908,0.000823344,-0.992297,-0.0174277,-0.215944,-0.000476605,-0.294687,-0.0273836,-4.04959
28966048,-0.123859,0.00148818,0.00111043,-0.992298,-0.0125977,0.0351844,0.000253597,0.680442,-0.107319,4.04607
28974030,-0.123862,0.000877041,0.00145389,-0.992298,-0.00304448,-0.0275234,0.000305303,0.230218,-0.0744806,0.000594961
28981982,-0.123861,0.00170885,0.00123098,-0.992297,0.00217195,-0.0148029,0.000202747,-0.242825,0.0313096,-0.000235751
28989990,-0.12386,0.00235802,0.000758687,-0.992297,0.0024338,0.000852514,0.000114626,-0.160302,0.0904771,-0.000297479
28997776,-0.123858,0.00235066,-4.16956e-05,-0.992297,0.000727483,0.0049961,6.92127e-05,0.00545124,0.07757,-0.000525473
29005812,-0.123858,0.00161893,-0.000397657,-0.992299,-0.000663248,0.00433829,4.24306e-05,0.0788807,0.0369419,-0.000610121
29013733,-0.123858,0.000807411,-0.000361982,-0.9923,-0.00105244,0.00288878,2.71722e-05,0.0878999,0.001592,-0.000492139
29021919,-0.123858,4.53093e-05,-9.34845e-05,-0.9923,-0.000713941,0.00165719,1.87337e-05,0.0680684,-0.0155693,-0.00030947
29029980,-0.123858,-0.000634591,0.000336607,-0.9923,-0.000137649,0.000887252,1.31645e-05,0.0392531,-0.0150139,-0.000163069
29037874,-0.123857,-0.00112673,0.00096992,-0.992299,0.00031102,0.000648163,8.73397e-06,0.0138085,-0.00120802,-9.95782e-05
29045720,-0.123857,-0.000540975,0.000427576,-0.9923,0.000445431,0.000867624,7.85535e-06,0.017759,-0.00503856,-0.000114988
29053792,-0.123858,-0.000200334,-0.000294878,-0.9923,0.000372208,0.0011973,8.68651e-06,0.0236301,-0.0146875,-0.000131048
29132018,-0.123857,-0.000627619,0.00038603,-0.9923,0.000256537,0.00144122,6.24846e-06,0.014198,-0.000967362,-8.95659e-05
29139850,-0.123858,-0.000381441,-0.000372988,-0.9923,0.000176315,0.00158001,8.35359e-06,0.0218384,-0.0144677,-0.000103383
29147821,-0.123858,-0.000687557,0.000370576,-0.9923,0.000133956,0.00164973,5.84931e-06,0.0145974,-6.70971e-05,-7.20573e-05
29155948,-0.123858,-0.000429575,-0.00038411,-0.9923,0.00010831,0.00168432,8.24746e-06,0.0214613,-0.0133368,-8.95173e-05
29163883,-0.123858,-0.000697165,0.000374118,-0.9923,8.50831e-05,0.00170484,5.68445e-06,0.0141351,0.00148022,-6.48689e-05
29171920,-0.123858,-0.000422436,-0.000374206,-0.9923,6.14183e-05,0.0017211,8.1232e-06,0.0209703,-0.0119361,-8.28558e-05
29179962,-0.123858,-0.000687892,0.000383547,-0.9923,4.01663e-05,0.00173596,5.57106e-06,0.0137031,0.00240385,-6.21477e-05
29187857,-0.123858,-0.000415336,-0.000365404,-0.9923,2.41612e-05,0.00174905,8.04585e-06,0.0206801,-0.0114295,-8.01176e-05
29195733,-0.123858,-0.000685295,0.000390973,-0.9923,1.41676e-05,0.00175949,5.50221e-06,0.0135286,0.00265301,-6.08688e-05
29203979,-0.123858,-0.000418286,-0.000360226,-0.9923,9.08464e-06,0.00176687,8.01257e-06,0.0205461,-0.0112941,-7.88471e-05
29211901,-0.123858,-0.000690464,0.00039563,-0.9923,7.20959e-06,0.00177152,5.46424e-06,0.0134241,0.00281021,-6.01548e-05
29282034,-0.123858,-0.000425551,-0.000356787,-0.9923,6.91879e-06,0.00177407,7.99268e-06,0.0204212,-0.0110991,-7.79351e-05
29289870,-0.123858,-0.000696951,0.000399853,-0.9923,7.18453e-06,0.00177532,5.43483e-06,0.0133013,0.00307984,-5.97883e-05
29297744,-0.123858,-0.000432858,-0.000353363,-0.9923,7.45527e-06,0.00177582,7.97034e-06,0.0202646,-0.0108123,-7.71227e-05
29305812,-0.123858,-0.000702001,0.000404402,-0.9923,7.59044e-06,0.00177602,5.40508e-06,0.013169,0.00340855,-5.96267e-05
29313757,-0.123858,-0.000439955,-0.000349003,-0.9923,7.55962e-06,0.0017761,7.94289e-06,0.0200827,-0.0104902,-7.63494e-05
29321731,-0.123858,-0.000705737,0.000409117,-0.9923,7.47985e-06,0.00177618,5.37458e-06,0.0130472,0.00374193,-5.95616e-05
29329685,-0.123858,-0.000447076,-0.000344625,-0.9923,7.37316e-06,0.00177624,7.91514e-06,0.0198954,-0.010176,-7.56248e-05
29337768,-0.123858,-0.00070894,0.000414687,-0.9923,7.29923e-06,0.00177631,5.34106e-06,0.0129344,0.00408593,-5.95405e-05
29345612,-0.123858,-0.000454147,-0.000341123,-0.9923,7.24548e-06,0.00177636,7.8907e-06,0.0197135,-0.00988321,-7.49529e-05
29353652,-0.123858,-0.000711376,0.00042031,-0.9923,7.2351e-06,0.0017764,5.30708e-06,0.0128385,0.00443111,-5.95613e-05
29361744,-0.123858,-0.000461394,-0.00033775,-0.9923,7.21567e-06,0.00177641,7.86687e-06,0.01953,-0.00959303,-7.42931e-05
29369860,-0.123858,-0.000712904,0.000426201,-0.9923,7.22535e-06,0.00177642,5.27189e-06,0.0127602,0.00478458,-5.9623e-05
29377915,-0.123858,-0.000468925,-0.000333946,-0.9923,7.21974e-06,0.00177641,7.84156e-06,0.0193397,-0.0092944,-7.3628e-05
29469709,-0.123858,-0.000713147,0.000431885,-0.9923,7.22201e-06,0.00177641,5.23692e-06,0.012707,0.00513785,-5.97307e-05
29477636,-0.123858,-0.000476467,-0.0003304,-0.9923,7.21164e-06,0.0017764,7.81719e-06,0.0191496,-0.00900053,-7.29805e-05
29485533,-0.123858,-0.000711919,0.000437449,-0.9923,7.21743e-06,0.0017764,5.20166e-06,0.0126826,0.00549228,-5.9892e-05
29493574,-0.123859,-0.000483974,-0.000327215,-0.9923,7.19894e-06,0.00177638,7.79411e-06,0.0189609,-0.00871355,-7.23535e-05
29501546,-0.123858,-0.0007094,0.000444387,-0.9923,7.20284e-06,0.00177639,5.16107e-06,0.01268,0.00587654,-6.01114e-05
29509666,-0.123859,-0.000491827,-0.000323006,-0.9923,7.19159e-06,0.00177637,7.76749e-06,0.0187631,-0.00840768,-7.17069e-05
29517524,-0.123858,-0.000704645,0.000450916,-0.9923,7.18961e-06,0.00177637,5.121e-06,0.0127218,0.00625833,-6.04007e-05
29525448,-0.123859,-0.000499424,-0.000319723,-0.9923,7.17785e-06,0.00177636,7.74408e-06,0.0185725,-0.00811919,-7.11011e-05
29533590,-0.123858,-0.000697629,0.00045849,-0.9923,7.18309e-06,0.00177636,5.0762e-06,0.0128052,0.00666584,-6.07787e-05
29541572,-0.123859,-0.000507126,-0.000315951,-0.9923,7.16548e-06,0.00177634,7.71902e-06,0.0183786,-0.00782135,-7.04927e-05
29549521,-0.123858,-0.000687427,0.000466375,-0.9923,7.16955e-06,0.00177635,5.029e-06,0.0129498,0.00708718,-6.12642e-05
29557663,-0.123859,-0.000514684,-0.000312476,-0.9923,7.15918e-06,0.00177633,7.69487e-06,0.0181883,-0.00752907,-6.99101e-05
29621780,-0.123858,-0.00067315,0.000474311,-0.9923,7.1569e-06,0.00177633,4.97991e-06,0.0131736,0.00751951,-6.18831e-05
29629680,-0.123859,-0.000522023,-0.000309477,-0.9923,7.14569e-06,0.00177632,7.67235e-06,0.0180034,-0.00724549,-6.93554e-05
29637596,-0.123858,-0.000653761,0.00048294,-0.9923,7.15024e-06,0.00177632,4.92612e-06,0.0134952,0.00797764,-6.26833e-05
29645602,-0.123859,-0.000529256,-0.000306122,-0.9923,7.13317e-06,0.0017763,7.64856e-06,0.0178198,-0.00695461,-6.88082e-05
29653606,-0.123858,-0.000627144,0.000490803,-0.9923,7.13638e-06,0.00177631,4.872e-06,0.0139593,0.00843844,-6.37189e-05
29661752,-0.123851,-0.000376988,0.00120422,-0.9923,0.00712008,0.0165444,-0.00159595,-0.0149038,-0.109857,-0.0227934
29669646,-0.123853,-0.000766785,0.00044917,-0.9923,0.0130257,0.000559731,0.000241041,0.105648,0.220857,0.0254289
29677675,-0.123854,-0.0007404,-0.000312909,-0.9923,-0.0102321,-0.00544574,0.000147826,0.0010856,0.129397,-0.000436344
29685689,-0.123848,-0.000398316,0.00041301,-0.992301,-0.00549748,0.0132717,-0.00147583,-0.0744975,-0.226243,-0.0236733
29693616,-0.12385,-0.000997212,-0.000152692,-0.9923,0.0076045,0.000180056,0.000308182,0.0725723,0.0586844,0.0250655
29701745,-0.123851,-0.00083901,-0.000906265,-0.9923,-0.00962769,-0.00500517,0.000187788,0.00315372,0.0442877,-0.000799613
29709878,-0.123853,-0.000633093,-0.000203749,-0.9923,0.0163515,0.00706328,0.000431544,-0.0107599,-0.154772,0.0019594
29717693,-0.123854,-0.000903378,-0.000931884,-0.9923,-0.00505874,-0.00503884,0.000266809,0.0494616,0.120386,-0.00105743
29725674,-0.123856,-0.000643642,-0.000235396,-0.9923,0.0136508,0.00474068,0.000468512,-0.00471149,-0.0940387,0.00182948
29792085,-0.123857,-0.00084352,-0.00096912,-0.992299,-0.00906682,-0.00612351,0.00028959,0.0360622,0.105692,-0.00130416
29800024,-0.123859,-0.000598598,-0.000258803,-0.9923,0.0116375,0.00458637,0.000488464,-0.0113591,-0.133091,0.00159844
29807871,-0.123854,-0.000300881,0.000481554,-0.9923,-0.00199733,0.00873149,-0.00125054,0.0119736,-0.0191066,-0.0246402
29815884,-0.123856,-0.000758001,-0.000234052,-0.9923,0.0122732,0.00248703,0.000539995,0.0755144,0.112374,0.0506514
29823907,-0.123859,-0.000765544,-0.00106755,-0.992299,0.00839576,0.00160191,0.000574924,0.0163264,0.000956009,0.000237596
29831965,-0.123861,-0.000836509,-0.00180494,-0.992298,-0.0149781,-0.00774666,0.000340533,0.0184933,0.0465527,-0.00179004
29839881,-0.123863,-0.00062291,-0.00107328,-0.992299,0.0091407,0.00433616,0.000542816,-0.0180005,-0.20434,0.000847822
29848127,-0.123858,-0.000519452,-0.000273381,-0.9923,-0.00181875,0.00877919,-0.00120069,0.0141956,-0.0531671,-0.0249243
29856004,-0.12386,-0.00101203,-0.00096812,-0.992299,0.0130353,0.0025004,0.000563064,0.0805888,0.107095,0.050749
29863923,-0.123863,-0.0011496,-0.00179242,-0.992297,0.00883232,0.00144822,0.000582883,0.0177208,0.0110501,0.000259517
29872074,-0.123865,-0.00119612,-0.00253292,-0.992295,-0.0151603,-0.00793696,0.000342386,0.0169028,0.0518743,-0.00164365
29880017,-0.123867,-0.000972469,-0.00180265,-0.992297,0.008647,0.00416413,0.000548459,-0.0217396,-0.210988,0.000516486
29957819,-0.123868,-0.00146973,-0.00241946,-0.992295,-0.000756869,-0.00281536,0.000424113,0.0567655,0.0573979,-0.00174731
29965677,-0.123868,-0.00189104,-0.00174843,-0.992295,-0.00128324,-0.00503946,0.000444706,0.0141055,-0.000591968,0.000334084
29973781,-0.12387,-0.00144056,-0.00112706,-0.992297,0.00868621,0.00141179,0.000575668,-0.00984639,-0.0561484,0.00118165
29981710,-0.123865,-0.000901883,-0.000521715,-0.992298,-0.00797738,0.00687334,-0.00116458,-0.0142277,-0.0443637,-0.0250846
29989724,-0.123868,-0.00125566,-0.00120853,-0.992297,-0.00535229,-0.00532967,0.000474847,0.04661,0.0708758,0.0241064
29997807,-0.123862,-0.000876456,-0.000469308,-0.992299,-0.0114998,0.00813295,-0.00122794,-0.0552568,-0.170121,-0.0250325
30005825,-0.123864,-0.00148713,-0.000974924,-0.992298,-0.00011114,-0.00277446,0.000435749,0.0532034,0.0325332,0.0241752
30013765,-0.123866,-0.00126264,-0.000261949,-0.992298,0.0129475,0.00239622,0.000555718,0.0112892,-0.0371157,0.00141815
30021790,-0.123862,-0.000627443,-0.000689493,-0.992299,-0.00536628,0.00692111,-0.00117941,0.00415488,0.0022193,-0.0248824
30029747,-0.123864,-0.000956636,-0.0013908,-0.992298,-0.00497557,-0.00549132,0.000461817,0.0560205,0.106373,0.0242673
30037928,-0.123859,-0.000582037,-0.000645576,-0.992299,-0.0121779,0.00800933,-0.00123817,-0.0502939,-0.162117,-0.0249797
30045729,-0.12386,-0.0012637,-0.00104294,-0.992298,-0.000818673,-0.00283315,0.000432733,0.0555794,0.0241001,0.0241293
30053720,-0.123862,-0.0011049,-0.00031107,-0.992299,0.0126103,0.00239325,0.000558449,0.0127867,-0.0500935,0.00140366
30061962,-0.123858,-0.000361262,-0.000508624,-0.9923,-0.00537363,0.0069506,-0.00118565,0.00807988,-0.00286704,-0.0248869
30069774,-0.123859,-0.000714677,-0.00119837,-0.992299,-0.00483233,-0.00545426,0.000461492,0.0602616,0.106421,0.0241713
30147472,-0.123855,-0.000351265,-0.000447197,-0.9923,-0.0120208,0.0080407,-0.00124733,-0.0458322,-0.15843,-0.0248751
30155237,-0.123856,-0.00102614,-0.000859282,-0.992299,-0.000713941,-0.00281403,0.000433326,0.0604168,0.0291029,0.0240875
30163240,-0.123858,-0.000928875,-0.000115302,-0.9923,0.0126581,0.00240218,0.000561029,0.0163814,-0.0448383,0.00142347
30171296,-0.123853,-0.000259105,-0.000488933,-0.9923,-0.00536323,0.00695383,-0.00118699,0.0105766,-0.00166747,-0.0248786
30179172,-0.123855,-0.00062306,-0.0011731,-0.992299,-0.00484147,-0.00545558,0.000460851,0.0624671,0.107169,0.024141
30187197,-0.12385,-0.000266702,-0.000417919,-0.992301,-0.0120324,0.00804004,-0.00125037,-0.0438453,-0.158,-0.0248449
30195052,-0.123852,-0.000947321,-0.00082004,-0.9923,-0.000724196,-0.00281566,0.000433469,0.0622534,0.0295225,0.0240644
30203157,-0.123854,-0.000876504,-7.26411e-05,-0.9923,0.0126522,0.00240125,0.000561972,0.0176842,-0.0444636,0.00142653
30211227,-0.123849,-0.000223154,-0.000474489,-0.992301,-0.00536413,0.0069546,-0.00118729,0.0116288,-0.00185792,-0.0248719
30219004,-0.123851,-0.000592484,-0.00115569,-0.9923,-0.00484109,-0.00545594,0.000460698,0.0634215,0.107066,0.0241189
30299566,-0.123846,-0.00023965,-0.000398594,-0.992301,-0.0120301,0.00804122,-0.00125175,-0.0429656,-0.15803,-0.0248259
30307476,-0.123848,-0.000923125,-0.00079536,-0.9923,-0.000723388,-0.00281588,0.000433605,0.0630758,0.0296084,0.0240488
30315538,-0.123849,-0.000864328,-4.67322e-05,-0.992301,0.0126523,0.00240099,0.000562082,0.0182683,-0.0443735,0.00142893
30323526,-0.123845,-0.000217665,-0.00045915,-0.992301,-0.00536323,0.00695549,-0.00118724,0.0121052,-0.00199132,-0.0248645
30331554,-0.123847,-0.000589541,-0.00113892,-0.992301,-0.00484118,-0.0054565,0.000460775,0.0638478,0.106948,0.0241012
30339341,-0.123842,-0.000264254,-0.00038378,-0.992302,-0.00796886,0.00687689,-0.00117607,-0.0592607,-0.228217,-0.0477228
30347399,-0.123844,-0.00062184,-0.00102305,-0.992301,-0.015021,-0.00783453,0.000362449,0.0405562,0.0509722,0.0153463
30355424,-0.123846,-0.000426946,-0.000287696,-0.992301,0.00932731,0.00422892,0.0005474,-0.0101507,-0.185385,0.00112826
30363331,-0.123841,-0.000427951,0.000524255,-0.992302,-0.00179914,0.00867488,-0.00120577,0.0188559,-0.0318885,-0.0248161
30371391,-0.123843,-0.000766331,-0.000188902,-0.992302,-0.00112999,-0.00506216,0.000460822,0.0759182,0.159516,0.024105
30379525,-0.123845,-0.000361416,0.000461769,-0.992301,0.00860841,0.00137459,0.0005868,0.0107134,-0.0197205,0.00130708
30387405,-0.123847,-0.000500899,-0.000261863,-0.992301,-0.0153332,-0.00798745,0.000367289,0.0276527,0.0929554,-0.00204906
30471811,-0.123849,-0.000289975,0.000472543,-0.992301,0.00854657,0.00413852,0.000537163,-0.011269,-0.170543,0.00142214
30479650,-0.123843,-0.000272323,0.00128533,-0.992301,-0.0023315,0.00864675,-0.00122195,0.01801,-0.028167,-0.0247317
30487702,-0.123846,-0.000605647,0.000570383,-0.992301,-0.00128178,-0.00504519,0.000467009,0.0759529,0.163379,0.0238387
30495644,-0.123848,-0.000127391,0.00117064,-0.992301,0.00869766,0.00141103,0.000586404,0.0131739,-0.012044,0.00133914
30503745,-0.12385,-0.000278515,0.000449887,-0.992301,-0.0151712,-0.00795231,0.000374401,0.0305198,0.105101,-0.00220447
30511673,-0.123851,-7.05506e-05,0.00118548,-0.9923,0.00867939,0.00416435,0.000533112,-0.0081459,-0.155843,0.00166964
30519583,-0.123846,-0.0001868,0.0019945,-0.992299,-0.00225601,0.00865976,-0.00123414,0.0186093,-0.0131405,-0.0246937
30527700,-0.123842,-0.000646114,0.00136791,-0.992301,-0.0139226,0.0151155,-0.0013359,0.0569205,0.0909895,0.0030813
30535538,-0.12384,0.000868551,0.000868356,-0.992301,-0.0218647,-0.217293,-0.000428933,-0.164821,0.103464,-4.03159
30543630,-0.123842,4.09392e-05,0.00119529,-0.992301,-0.0122774,0.0199853,0.000229247,0.626104,-0.138443,4.0549
30551706,-0.123843,-0.000273379,0.0018354,-0.9923,0.000749895,-0.0347704,0.000287217,0.0765957,-0.0685222,-0.000581448
30559654,-0.123843,0.000542871,0.00155176,-0.992301,0.00483179,-0.0153017,0.000168556,-0.334243,0.0675086,-0.00222596
30567619,-0.123842,0.00116253,0.00104615,-0.992301,0.00296267,0.00187741,8.12706e-05,-0.1807,0.114541,-0.00161144
30669016,-0.123841,0.00109792,0.000249083,-0.992301,0.000217148,0.00553616,4.66987e-05,0.0111803,0.0762245,-0.00117183
30676900,-0.123841,0.000313413,2.85649e-05,-0.992302,-0.00112297,0.00422455,3.01378e-05,0.08208,0.0238828,-0.000844441
30684984,-0.123841,-0.000482196,0.00018388,-0.992302,-0.00107654,0.00238962,2.10054e-05,0.080286,-0.00858181,-0.000517856
30693021,-0.123841,-0.00120326,0.000541192,-0.992301,-0.000417614,0.0010556,1.47828e-05,0.0501147,-0.0160689,-0.000277255
30700895,-0.123841,-0.00173666,0.00113926,-0.9923,0.000157416,0.00050714,9.89268e-06,0.0163721,-0.00390423,-0.000171455
30708979,-0.123841,-0.00104346,0.000743151,-0.992301,0.000381754,0.000587901,8.05321e-06,0.0143585,-0.00345032,-0.000172372
30716923,-0.123841,-0.000404168,0.000265683,-0.992302,0.00037013,0.000903878,7.82194e-06,0.0196696,-0.00603238,-0.000161137
30724862,-0.123841,-0.000371786,-0.000534044,-0.992302,0.000285011,0.00122183,9.08248e-06,0.0195941,-0.0186046,-0.000150442
30732737,-0.123841,-0.000432593,0.000264153,-0.992302,0.000206817,0.0014605,6.63209e-06,0.0165784,-0.00164942,-0.000105976
30740748,-0.123841,-0.000596266,-0.000520093,-0.992302,0.000150234,0.00161071,8.91074e-06,0.0162881,-0.0163264,-0.000103591
30748897,-0.123841,-0.000498892,0.000274526,-0.992302,0.000108052,0.00169169,6.15767e-06,0.017167,5.02026e-05,-8.11967e-05
30756882,-0.123841,-0.000671011,-0.000508968,-0.992302,7.4209e-05,0.00172924,8.79198e-06,0.0162513,-0.0152011,-8.49483e-05
30764982,-0.123841,-0.000513888,0.000276082,-0.992302,4.74755e-05,0.00174484,5.95951e-06,0.0175664,0.00065507,-7.16469e-05
30859813,-0.123841,-0.000656971,-0.000512789,-0.992302,2.83449e-05,0.00175186,8.70783e-06,0.0166511,-0.0149905,-7.93241e-05
30867692,-0.123841,-0.000507803,0.000274,-0.992302,1.65359e-05,0.00175676,5.87441e-06,0.0175146,0.000688233,-6.81529e-05
30875718,-0.123841,-0.000632934,-0.000517698,-0.992302,1.04279e-05,0.00176148,8.67196e-06,0.0168864,-0.0150094,-7.7758e-05
30883742,-0.123841,-0.000505108,0.000273052,-0.992302,7.98345e-06,0.00176608,5.83552e-06,0.0173725,0.000742232,-6.66482e-05
30893500,-0.123842,-0.000620573,-0.000519823,-0.992302,7.41841e-06,0.00176997,8.65845e-06,0.0170142,-0.0148815,-7.69272e-05
30899950,-0.123841,-0.000507054,0.000273093,-0.992302,7.5216e-06,0.00177286,5.81317e-06,0.0172804,0.000939171,-6.58932e-05
30907670,-0.123842,-0.000614135,-0.000520391,-0.992302,7.68031e-06,0.00177469,8.64541e-06,0.0171217,-0.014639,-7.63197e-05
30915593,-0.123841,-0.000509606,0.000273384,-0.992302,7.75031e-06,0.00177571,5.79514e-06,0.0172214,0.00119116,-6.552e-05
30923616,-0.123842,-0.000608242,-0.000520683,-0.992302,7.67512e-06,0.00177616,8.62921e-06,0.0172249,-0.0143762,-7.59184e-05
30931697,-0.123841,-0.000511219,0.00027337,-0.992302,7.61864e-06,0.00177627,5.7724e-06,0.0171685,0.00143718,-6.53507e-05
30939600,-0.123842,-0.000602394,-0.000521423,-0.992302,7.43521e-06,0.00177635,8.61354e-06,0.0173116,-0.0141306,-7.56528e-05
30947648,-0.123841,-0.000512229,0.000273479,-0.992302,7.35151e-06,0.00177636,5.76361e-06,0.0171156,0.00168,-6.52534e-05
31065373,-0.123842,-0.000597104,-0.000522231,-0.992302,7.28485e-06,0.00177635,8.59855e-06,0.0173807,-0.0138917,-7.54091e-05
31073321,-0.123841,-0.000512835,0.000274285,-0.992302,7.28128e-06,0.00177637,5.7457e-06,0.0170654,0.00193564,-6.52008e-05
31081480,-0.123842,-0.000592658,-0.000522458,-0.992302,7.26777e-06,0.00177638,8.58235e-06,0.0174318,-0.0136433,-7.51429e-05
31089622,-0.123841,-0.000513188,0.000275057,-0.992302,7.26144e-06,0.0017764,5.72791e-06,0.0170213,0.00219253,-6.51752e-05
31097533,-0.123842,-0.000588986,-0.000522061,-0.992302,7.26965e-06,0.0017764,8.56432e-06,0.0174675,-0.0133838,-7.4844e-05
31105572,-0.123841,-0.000513227,0.000275657,-0.992302,7.27116e-06,0.00177641,5.71078e-06,0.0169844,0.00244726,-6.51678e-05
31113533,-0.123842,-0.000585992,-0.000521252,-0.992302,7.25048e-06,0.0017764,8.54503e-06,0.0174892,-0.0131174,-7.45228e-05
31121515,-0.123841,-0.000512865,0.00027625,-0.992302,7.26379e-06,0.00177641,5.69347e-06,0.0169554,0.00270277,-6.51825e-05
31129559,-0.123842,-0.000583637,-0.000520451,-0.992302,7.25046e-06,0.00177639,8.52618e-06,0.0174984,-0.0128529,-7.41872e-05
31137559,-0.123842,-0.000512069,0.000276745,-0.992302,7.23834e-06,0.00177639,5.67624e-06,0.016935,0.00295762,-6.52222e-05
31145619,-0.123842,-0.00058188,-0.000519888,-0.992302,7.24047e-06,0.00177638,8.50837e-06,0.0174964,-0.0125947,-7.38476e-05
31153641,-0.123842,-0.000510807,0.000277111,-0.992302,7.23819e-06,0.00177638,5.65942e-06,0.0169238,0.00321088,-6.52815e-05
31161744,-0.123842,-0.000580668,-0.000519647,-0.992302,7.21595e-06,0.00177636,8.49184e-06,0.0174846,-0.0123438,-7.35094e-05
31261978,-0.123842,-0.000509041,0.000277327,-0.992302,7.22926e-06,0.00177637,5.64284e-06,0.0169229,0.00346235,-6.53645e-05
31269858,-0.123842,-0.000579947,-0.000519713,-0.992302,7.21656e-06,0.00177635,8.47675e-06,0.017464,-0.0121003,-7.31682e-05
31278067,-0.123842,-0.000506733,0.00027737,-0.992302,7.20509e-06,0.00177635,5.62658e-06,0.0169329,0.00371204,-6.5475e-05
31285854,-0.123842,-0.000576052,-0.000520259,-0.992302,8.62239e-06,0.00179279,8.34678e-06,0.0174682,-0.0118681,0.000100299
31294083,-0.123842,-0.000503735,0.000277264,-0.992302,7.95521e-06,0.00187227,5.73015e-06,0.0169137,0.00392196,-0.000631144
31302068,-0.123842,-0.000635325,-0.000513467,-0.992302,7.30447e-06,0.00173671,8.15413e-06,0.0169141,-0.0115852,0.00116044
31309958,-0.123842,-0.000519957,0.000278879,-0.992302,2.3869e-05,0.00186143,4.93336e-06,0.017388,0.00432676,-0.000344922
31318042,-0.123842,-0.000607786,-0.000517225,-0.992302,2.60675e-05,0.00187706,8.04402e-06,0.0172796,-0.0112456,-0.000430231
31326095,-0.123842,-0.00045529,0.000268027,-0.992302,2.37918e-05,0.00184571,5.17846e-06,0.0178289,0.00448794,-0.000210385
31334171,-0.123842,-0.000572899,-0.000524114,-0.992302,2.00017e-05,0.00182077,8.18974e-06,0.0170397,-0.0111511,-0.000130359
31427693,-0.123842,-0.000435402,0.000263909,-0.992302,1.61305e-05,0.00180649,5.35341e-06,0.0176629,0.00458289,-9.22746e-05
31435605,-0.123843,-0.00067383,0.000943225,-0.992301,0.0264064,0.0100931,0.000270236,0.0296204,-0.0418125,0.00313132
31443512,-0.123844,-0.000888822,0.000179343,-0.992301,-0.00106288,-0.00461248,0.000188918,0.0606788,0.243384,-0.000727974
31451611,-0.123845,-9.37191e-05,2.78418e-05,-0.992302,-0.0134395,-0.00367715,0.000107048,-0.026509,0.00228881,-0.000735471
31459589,-0.123846,4.97683e-05,0.00074226,-0.992301,0.0171636,0.00855505,0.000382594,-0.0039123,-0.191642,0.0026203
31467597,-0.123847,-0.000281227,3.23662e-05,-0.992301,-0.00294937,-0.00440587,0.000240192,0.061606,0.124657,-0.00120605
31475417,-0.123848,0.000305898,-0.000502742,-0.992301,-0.00949343,-0.00493022,0.00016948,0.00263233,0.00797504,-0.000964081
31483421,-0.12385,7.89928e-05,0.000242295,-0.992301,0.00559876,-0.000826977,0.000353709,0.0321388,-0.0388043,0.000825927
31491568,-0.123844,0.000509026,0.00091488,-0.992301,-0.00422239,0.00939768,-0.00138608,-0.00682143,-0.0474195,-0.0243638
31499510,-0.123846,7.94862e-05,0.000237525,-0.992301,0.00161463,-0.00261833,0.000388805,0.0803571,0.123253,0.0247942
31507493,-0.123848,-0.000132235,0.000968048,-0.992301,0.011815,0.00244019,0.000544293,0.0180766,-0.00799053,0.00178371
31515471,-0.123842,0.000577184,0.000676443,-0.992302,-0.00649191,0.00707207,-0.00136855,0.0120544,-0.00267437,-0.0246233
31523557,-0.123844,0.000174689,1.57247e-05,-0.992302,-0.00497297,-0.00511344,0.000480612,0.0659707,0.0992489,0.0236815
31531483,-0.123839,0.000510439,0.00077921,-0.992302,-0.0113288,0.00821504,-0.00133873,-0.0359392,-0.149796,-0.0235262
31539551,-0.123841,-0.000117552,0.000294902,-0.992302,-3.56615e-05,-0.00255881,0.000455732,0.0724663,0.0488983,0.0229896
31547688,-0.123843,-0.000411429,0.000995519,-0.992301,0.0130826,0.0025228,0.000611746,0.0226996,-0.0164453,0.00147389
31652164,-0.123839,-0.000269428,0.000235695,-0.992302,-0.00515754,0.00694605,-0.00124818,0.00809949,0.0205635,-0.0250699
31660165,-0.123841,-0.000584401,-0.000473438,-0.992302,-0.0046297,-0.00535583,0.000501624,0.0601305,0.126864,0.024346
31668234,-0.123836,-0.000188813,0.00025977,-0.992303,-0.0119962,0.00795141,-0.00127016,-0.0445816,-0.137426,-0.0251005
31676180,-0.123838,-0.000787875,-0.000257535,-0.992302,-0.000744378,-0.00278239,0.000455092,0.0616935,0.043581,0.0245249
31684232,-0.123839,-0.000716193,0.000490621,-0.992302,0.0124675,0.00236899,0.000572158,0.0174513,-0.0305114,0.00151533
31692047,-0.123835,-0.00028953,-0.000145379,-0.992303,-0.00541145,0.00688325,-0.00116231,0.00775681,0.00592693,-0.0253565
31700103,-0.123837,-0.000626531,-0.000844656,-0.992302,-0.00476679,-0.00539209,0.000466016,0.0595976,0.11301,0.0245607
31708136,-0.123832,-0.000249648,-0.000100633,-0.992303,-0.0119444,0.00796182,-0.00125317,-0.044987,-0.14856,-0.0251947
31715984,-0.123834,-0.00104687,6.21158e-05,-0.992302,0.00858384,0.00410888,0.000529133,0.0539729,-0.00984265,0.0511782
31724015,-0.123837,-0.00164487,-0.000535954,-0.992301,0.0125209,0.00236637,0.000543266,0.0177061,-0.00482333,0.000279229
31732033,-0.123833,-0.000874066,-0.000606233,-0.992303,-0.00535646,0.0068921,-0.00115902,-0.00198155,-0.0043491,-0.0252923
31808196,-0.123835,-0.00117805,-0.00131987,-0.992301,-0.00475567,-0.00540643,0.000459019,0.0505019,0.102482,0.0247317
31816154,-0.12383,-0.000786015,-0.000585903,-0.992303,-0.0119353,0.00796386,-0.00123468,-0.0537885,-0.159327,-0.0253411
31824116,-0.123832,-0.00143967,-0.00102887,-0.992302,-0.000699931,-0.00282991,0.000430324,0.0515871,0.0248372,0.0247461
31832194,-0.123826,-0.00112585,-0.000294123,-0.992303,-0.00230103,0.00857566,-0.00117771,-0.0520502,-0.208717,-0.0486852
31840264,-0.123823,-0.00131359,-0.00105391,-0.992303,-0.0053543,0.00691571,-0.00114344,0.0188827,0.0229157,0.000370048
31848310,-0.123825,-0.00159398,-0.00177809,-0.992301,-0.00476287,-0.0053841,0.000455119,0.0438806,0.092,0.0240492
31856244,-0.12382,-0.00119685,-0.00104764,-0.992303,-0.0119075,0.00797104,-0.001219,-0.0600701,-0.169791,-0.0247659
31864236,-0.123821,-0.00188105,-0.00144077,-0.992302,-0.00071549,-0.00289029,0.00042714,0.0442501,0.0152502,0.0243033
31872207,-0.123823,-0.00161088,-0.000740583,-0.992303,0.0125052,0.00229864,0.000541505,0.00422899,-0.057985,0.00175122
31880219,-0.123819,-0.000835575,-0.000692694,-0.992304,-0.00537631,0.00693458,-0.00115644,-0.000365289,-0.00688051,-0.0258172
31888440,-0.123821,-0.00115394,-0.00139963,-0.992303,-0.00475621,-0.00538103,0.00045478,0.0520072,0.100005,0.0247447
31896304,-0.123816,-0.000770445,-0.000660566,-0.992305,-0.0119535,0.00798536,-0.00124387,-0.0525238,-0.161681,-0.0255036
31904436,-0.123817,-0.00144287,-0.00107452,-0.992303,-0.000693011,-0.00277451,0.000430176,0.0523959,0.0230034,0.0245685
31991982,-0.123819,-0.00124824,-0.000351152,-0.992304,0.0125176,0.00237752,0.000550949,0.0107272,-0.0499413,0.00142193
31999930,-0.123815,-0.000495058,-0.000515748,-0.992305,-0.00538002,0.00689696,-0.00116482,0.00628178,-0.0030381,-0.0253446
32007971,-0.123817,-0.000840748,-0.0012096,-0.992304,-0.00475409,-0.00538714,0.00045648,0.0579641,0.104058,0.0246149
32015866,-0.123812,-0.000471837,-0.000461613,-0.992306,-0.011961,0.00796597,-0.00125698,-0.04682,-0.157573,-0.0253326
32023920,-0.123813,-0.00114685,-0.000872719,-0.992305,-0.000694044,-0.00277741,0.000432603,0.058081,0.0272001,0.0245269
32031892,-0.123815,-0.00102328,-0.00013254,-0.992305,0.0125173,0.00237455,0.000557956,0.0150413,-0.045619,0.00146089
32039783,-0.12381,-0.000326799,-0.000455266,-0.992306,-0.00540324,0.00688401,-0.00118437,0.00986567,-0.00192441,-0.0253518
32047954,-0.123812,-0.00068812,-0.0011411,-0.992305,-0.00474975,-0.00538849,0.000460488,0.0612134,0.105348,0.0245809
32055885,-0.123807,-0.000328779,-0.000387315,-0.992306,-0.0120184,0.00794678,-0.00131802,-0.043789,-0.156241,-0.0252097
32063945,-0.123809,-0.00100865,-0.000791389,-0.992305,-0.000680451,-0.00277976,0.000444606,0.0610168,0.0287571,0.0244191
32071791,-0.12381,-0.000926323,-4.49095e-05,-0.992305,0.0125387,0.00237874,0.000596724,0.0171285,-0.0440366,0.00145381
32079920,-0.123806,-0.000267684,-0.000438712,-0.992306,-0.00529582,0.00689937,-0.00127861,0.0114246,-0.00184346,-0.024034
32087961,-0.123808,-0.000635828,-0.00112074,-0.992305,-0.00477131,-0.00539435,0.000494714,0.0624975,0.105455,0.0231786
32157644,-0.123802,-0.000281596,-0.000364585,-0.992307,-0.0119221,0.00795899,-0.00137162,-0.0425946,-0.156419,-0.0240134
32165418,-0.123804,-0.000966114,-0.00076041,-0.992306,-0.000707198,-0.00278387,0.000470856,0.0621174,0.0287834,0.0231916
32173528,-0.123806,-0.000900449,-1.19901e-05,-0.992306,0.0125199,0.00237224,0.0006091,0.0179354,-0.043977,0.00156659
32181403,-0.123802,-0.000252828,-0.000423266,-0.992307,-0.00542221,0.00687698,-0.00118222,0.0120513,-0.00196528,-0.0252856
32189419,-0.123803,-0.000624692,-0.00110328,-0.992306,-0.00475323,-0.00539828,0.000485126,0.063154,0.105381,0.0245098
32197514,-0.123799,-0.000272371,-0.000345919,-0.992307,-0.0119601,0.00796033,-0.00125205,-0.0420438,-0.156231,-0.0252233
32205437,-0.1238,-0.000958423,-0.000738942,-0.992306,-0.000697106,-0.00278577,0.000446321,0.0626205,0.0288755,0.0244644
32213631,-0.123802,-0.000900078,1.02165e-05,-0.992307,0.0125124,0.00236757,0.0005668,0.0182883,-0.0439487,0.00147587
32221515,-0.123798,-0.000253132,-0.000402077,-0.992307,-0.00536512,0.00689543,-0.0011613,0.0123773,-0.00212053,-0.0252852
32229615,-0.123799,-0.000627083,-0.0010809,-0.992306,-0.00475525,-0.00539863,0.000460768,0.063482,0.105244,0.0244918
32237642,-0.123795,-0.000276053,-0.000322974,-0.992308,-0.0119296,0.00797049,-0.0012514,-0.0417208,-0.15619,-0.0251714
32306053,-0.123796,-0.000962873,-0.000714467,-0.992307,-0.000697696,-0.00279205,0.000433574,0.0629099,0.0289411,0.0244389
32313948,-0.123798,-0.000908569,3.50532e-05,-0.992307,0.0125086,0.00235682,0.000556709,0.0184823,-0.0438746,0.00149758
32321877,-0.123793,-0.000989962,-0.00065963,-0.992307,-0.0248423,0.0121216,-0.00133725,0.0137971,0.0337853,-0.0228639
32329894,-0.123795,-0.00117254,0.000175315,-0.992307,-0.00267047,0.0940177,0.000593921,0.00507142,-0.0464506,0.0210732
32337826,-0.123796,-0.00187782,0.000294077,-0.992306,-0.00882992,-0.0215444,0.000377963,0.540258,-0.000703945,0.00423693
32345886,-0.123797,-0.000964561,0.000362125,-0.992307,-0.00656705,-0.0279465,0.000241708,-0.232749,-0.0536819,-0.00218951
32353809,-0.123798,-0.000143332,0.000336583,-0.992307,-0.0017072,-0.00496884,0.000155285,-0.309414,-0.0330361,-0.00212367
32361787,-0.123798,0.000601157,9.61975e-05,-0.992307,0.000943999,0.00466568,0.000104884,-0.0913082,0.0148968,-0.00172008
32369936,-0.123798,6.56811e-05,-0.000518781,-0.992307,0.00112147,0.00510882,7.45848e-05,0.0397176,0.0305156,-0.000186805
32377895,-0.123797,-0.000709836,-0.000762075,-0.992307,0.000288347,0.00338287,4.94809e-05,0.0715341,0.0205728,-0.000686202
32447196,-0.123797,-0.00151736,-0.000743976,-0.992306,-0.00034737,0.0017655,3.19972e-05,0.0544141,-0.000744056,9.64015e-05
32455037,-0.123795,-0.00207731,-0.000167499,-0.992306,-0.000440499,0.000790576,2.06076e-05,0.0237069,-0.00991839,-0.000426985
32462988,-0.123795,-0.00149737,0.000384826,-0.992307,-0.000168528,0.000374331,1.31694e-05,0.0141183,-0.00832593,-0.000288439
32471037,-0.123794,-0.000717585,0.000561892,-0.992307,0.000192452,0.000381379,9.20199e-06,0.0152457,-0.00533059,-0.000192195
32479172,-0.123794,3.96257e-05,0.000307872,-0.992308,0.000388451,0.000729973,7.95568e-06,0.0241191,-0.00600777,-0.000166745
32487011,-0.123794,-0.000762635,0.000231713,-0.992308,0.000369164,0.00117029,6.73553e-06,0.00861807,-0.00654611,-0.000116617
32495162,-0.123794,3.10365e-05,0.00019851,-0.992308,0.000266738,0.00147143,6.5913e-06,0.0269708,-0.00382027,-0.000128819
32502992,-0.123794,-0.000775497,0.000205839,-0.992308,0.000183654,0.00161384,6.29211e-06,0.0137044,-0.0050327,-8.67061e-05
32511105,-0.123794,-3.06638e-07,3.07063e-05,-0.992308,0.000141031,0.00165832,6.71178e-06,0.0302288,-0.00589912,-0.000112787
32519148,-0.123794,-0.000798011,0.000152419,-0.992308,0.000119562,0.00166697,6.38284e-06,0.0142331,-0.00455447,-6.96612e-05
32527203,-0.123795,-6.4751e-05,-0.000151065,-0.992308,0.000100075,0.00167787,7.22191e-06,0.0285353,-0.00773537,-0.000102644
32535251,-0.123794,-0.000825094,0.000121394,-0.992308,7.68904e-05,0.0016903,6.46105e-06,0.0124018,-0.00356959,-6.39141e-05
32543233,-0.123795,-9.13657e-05,-0.000182968,-0.992308,5.28424e-05,0.00170781,7.2553e-06,0.0269153,-0.00730508,-9.58494e-05
32551231,-0.123794,-0.00083947,0.000119407,-0.992308,3.30125e-05,0.00172909,6.46059e-06,0.0113533,-0.00308498,-6.84986e-05
32559132,-0.123795,-0.000104237,-0.000178635,-0.992308,1.96535e-05,0.00174573,7.22677e-06,0.0263281,-0.00706545,-9.96871e-05
32636474,-0.123794,-0.000852219,0.000123688,-0.992308,6.84497e-06,0.00175702,6.49049e-06,0.0110471,-0.00300204,-5.13012e-05
32644455,-0.123795,-0.000117374,-0.000175554,-0.992308,4.25705e-06,0.00176596,7.24872e-06,0.0261321,-0.00702855,-0.00010287
32652308,-0.123794,-0.00086777,0.000122419,-0.992307,4.35223e-06,0.00176811,6.45728e-06,0.0108507,-0.0029912,-6.09845e-05
32660491,-0.123795,-0.000134094,-0.000181145,-0.992308,3.26897e-06,0.00176603,7.21289e-06,0.0258659,-0.00701031,-6.31386e-05
32668597,-0.123795,-0.000885329,0.000116887,-0.992307,4.71883e-06,0.00176867,6.48525e-06,0.0105029,-0.00290327,-7.03045e-05
32676607,-0.123795,-0.000152925,-0.000189836,-0.992308,4.27064e-06,0.00176626,7.19657e-06,0.0255174,-0.00695479,-7.24021e-05
32684454,-0.123795,-0.00090223,0.000111931,-0.992307,2.91366e-06,0.00176258,6.46558e-06,0.010182,-0.00278135,-4.58295e-05
32692482,-0.123795,-0.000170335,-0.000194278,-0.992308,2.32712e-06,0.00176249,7.22521e-06,0.025111,-0.00684004,-7.79574e-05
32700567,-0.123795,-0.000918902,0.000107268,-0.992307,2.07323e-06,0.00176495,6.49478e-06,0.00977697,-0.00267328,-4.9165e-05
32708567,-0.123795,-0.00018769,-0.000200021,-0.992308,2.29073e-06,0.00176488,7.24912e-06,0.0247565,-0.00675584,-7.59739e-05
32716515,-0.123795,-0.000935932,0.000101662,-0.992307,2.87851e-06,0.00176525,6.50885e-06,0.00944923,-0.00258408,-4.60009e-05
32724640,-0.123795,-0.000204577,-0.000206071,-0.992308,3.59323e-06,0.00176343,7.26118e-06,0.024432,-0.00667,-7.00496e-05
32809865,-0.123795,-0.000953081,9.55531e-05,-0.992307,3.91182e-06,0.00176191,6.51161e-06,0.00911446,-0.00249708,-3.85033e-05
32817828,-0.123795,-0.000220569,-0.000211202,-0.992308,4.58168e-06,0.00176018,7.26385e-06,0.0240892,-0.00656276,-6.03299e-05
32825765,-0.123795,-0.000970276,8.89094e-05,-0.992307,5.09313e-06,0.00175582,6.52201e-06,0.00876583,-0.00242549,-1.85813e-05
32833919,-0.123795,-0.000236615,-0.000216324,-0.992308,5.52103e-06,0.00174592,7.25686e-06,0.0237713,-0.00645905,-2.28022e-05
32841758,-0.123795,-0.000986639,8.29963e-05,-0.992307,5.75829e-06,0.00173396,6.52538e-06,0.00839468,-0.00233784,4.30108e-05
32850141,-0.123795,-0.000253057,-0.000220393,-0.992308,5.40604e-06,0.00171178,7.25945e-06,0.0233791,-0.00633782,8.41099e-05
32857850,-0.123795,-0.00100349,7.55204e-05,-0.992307,3.08266e-06,0.00168506,6.7317e-06,0.00803932,-0.00228478,-7.61982e-05
32865767,-0.123795,-0.000269847,-0.000226058,-0.992308,1.51299e-05,0.00176486,7.45925e-06,0.02307,-0.00624223,-0.0004432
32873824,-0.123795,-0.00102279,6.38627e-05,-0.992307,1.39976e-05,0.00172289,6.71518e-06,0.00770595,-0.00228153,0.000110089
32881737,-0.123795,-0.0002846,-0.00022983,-0.992308,7.23224e-06,0.00166744,7.46871e-06,0.022708,-0.00607678,-2.36387e-05
32889898,-0.123795,-0.0010391,5.87899e-05,-0.992307,1.98187e-05,0.00178621,6.45536e-06,0.0072814,-0.0021997,-0.000189645
32897933,-0.123795,-0.000299844,-0.000232549,-0.992308,1.50281e-05,0.00173669,7.19725e-06,0.0223962,-0.00598031,-3.19329e-05
32905817,-0.123795,-0.00105621,5.16167e-05,-0.992307,1.28201e-05,0.00171023,6.38777e-06,0.00697417,-0.00218833,0.000139419
32913877,-0.123795,-0.00031553,-0.00023578,-0.992308,1.74414e-05,0.00176199,7.02911e-06,0.022056,-0.00586767,-0.000204175
32987079,-0.123795,-0.00107502,3.90235e-05,-0.992307,1.81183e-05,0.00177849,6.44682e-06,0.00663975,-0.00224521,-0.000187673
32994894,-0.123795,-0.000331591,-0.00024042,-0.992308,1.69506e-05,0.00177556,7.18335e-06,0.0217972,-0.00575251,-0.000129095
33002933,-0.123795,-0.00109297,2.87963e-05,-0.992307,1.49052e-05,0.00177048,6.57945e-06,0.0062826,-0.00224817,-7.45954e-05
33010744,-0.123795,-0.000347274,-0.000243362,-0.992308,1.26546e-05,0.00176888,7.25218e-06,0.0214174,-0.00561978,-8.62734e-05
33018943,-0.123795,-0.00111139,1.83377e-05,-0.992307,1.02229e-05,0.00178093,6.70129e-06,0.00586502,-0.00227429,-6.78806e-05
33026919,-0.123795,-0.000366674,-0.000255069,-0.992308,-1.43803e-05,0.00181041,7.38209e-06,0.0210996,-0.00555556,-8.85477e-05
33034930,-0.123795,-0.00112866,1.22927e-05,-0.992307,-4.25096e-05,0.00181396,6.82555e-06,0.00580222,-0.00217172,-6.04716e-05
33043036,-0.123795,-0.00117617,0.000713476,-0.992307,0.0263024,0.0100892,0.000250559,0.0212761,-0.047662,0.00314518
33050891,-0.123797,-0.00136906,-5.61853e-05,-0.992307,-0.00110838,-0.00459319,0.000186898,0.0524207,0.236923,-0.000551179
33058875,-0.123798,-0.000556209,-0.000126626,-0.992307,-0.0134542,-0.00366173,0.000117065,-0.0347397,-0.00209537,-0.00077152
33066991,-0.123799,-0.000382566,0.000580661,-0.992307,0.0170604,0.00854254,0.000370799,-0.0118135,-0.195446,0.00250948
33074986,-0.1238,-0.000683441,-0.000144223,-0.992307,-0.00296785,-0.00436616,0.000239729,0.0540731,0.11955,-0.00110869
33173567,-0.123794,-0.000293255,0.000553545,-0.992308,-0.00451657,0.0113105,-0.00141318,-0.0511148,-0.145225,-0.023561
33181334,-0.123796,-0.000772961,-0.000109109,-0.992307,0.00555326,-0.000782762,0.000342557,0.0737458,0.0936131,0.024511
33189329,-0.123791,-0.000269761,0.000505511,-0.992308,-0.00419963,0.00935507,-0.00135116,-0.0204547,-0.0568824,-0.0233961
33197263,-0.123792,-0.00066123,-0.000195887,-0.992308,0.00157524,-0.00255785,0.000380726,0.0668472,0.11209,0.0239548
33205274,-0.123794,-0.000399094,0.000510111,-0.992308,0.0116807,0.00245526,0.000533134,0.0142843,-0.0174977,0.00176213
33213305,-0.123796,-0.000512101,-0.000226552,-0.992308,-0.0133587,-0.00749072,0.000335881,0.0248843,0.10704,-0.00180787
33221268,-0.123798,-0.000263855,0.00049532,-0.992307,0.00871717,0.00425201,0.000516251,-0.0176628,-0.161044,0.00163145
33229157,-0.123792,-0.000112091,0.00128919,-0.992307,-0.00252299,0.00862196,-0.00123538,0.0135927,-0.031735,-0.0249506
33237230,-0.123795,-0.000574686,0.00057728,-0.992307,0.0123575,0.00257575,0.000553821,0.079928,0.118839,0.0508783
33245307,-0.12379,0.000188497,0.000491635,-0.992308,-0.0102057,0.00793056,-0.00128079,0.0030241,-0.00325917,-0.0172395
33253448,-0.123792,-0.000344833,-9.43989e-05,-0.992308,-0.000538003,-0.00274141,0.000428464,0.0692004,0.0672003,0.0244341
33261341,-0.123794,-0.000433889,0.000656852,-0.992308,0.0119343,0.00241093,0.00056031,0.0209405,-0.0230591,0.00131213
33269307,-0.123789,-5.75628e-05,-9.78864e-06,-0.992309,-0.005771,0.00676702,-0.00118782,0.0108618,0.00358058,-0.02463
33335322,-0.123791,-0.000416991,-0.00069703,-0.992308,-0.00478035,-0.00528319,0.000462111,0.0617126,0.107767,0.0239992
33343239,-0.123786,-5.28585e-05,5.3986e-05,-0.992309,-0.0118,0.0078663,-0.00125143,-0.0408398,-0.146283,-0.0248338
33351192,-0.123788,-0.000695532,-0.000406689,-0.992308,-0.000588396,-0.00267051,0.000434214,0.0631601,0.0369998,0.0241056
33359117,-0.123789,-0.000672466,0.000345793,-0.992308,0.0123571,0.00235982,0.000560498,0.0191249,-0.0323893,0.00144817
33367152,-0.123792,-0.000808379,-0.000391035,-0.992308,-0.0121424,-0.00759773,0.000359734,0.0302036,0.129577,-0.00179963
33375272,-0.123793,-0.000536711,0.000321786,-0.992308,0.00887431,0.00402227,0.000522936,-0.0146658,-0.129802,0.00104011
33383096,-0.123788,-0.000309397,0.0010953,-0.992308,-0.00293742,0.00829449,-0.00120769,0.0144191,-0.0147591,-0.0244928
33391173,-0.12379,-0.000632524,0.000376643,-0.992308,-0.00179451,-0.00484729,0.000458143,0.0695134,0.152615,0.0238145
33399218,-0.123785,-0.000146465,0.00103808,-0.992309,-0.010666,0.00771818,-0.00126274,-0.0394003,-0.0913293,-0.0241218
33407165,-0.123787,-0.000630908,0.000412031,-0.992309,-0.000863656,-0.00272617,0.000428758,0.0614918,0.0681957,0.0236038
33415036,-0.123789,-0.000558955,0.00116231,-0.992308,0.0116521,0.00235838,0.000548745,0.0172936,-0.0195508,0.00146715
33489169,-0.123791,-0.00079569,0.000408385,-0.992308,-0.00165394,-0.0047896,0.000456666,0.055655,0.181285,-0.00227438
33496981,-0.123794,-0.000774703,-0.000375573,-0.992308,-0.00467863,-0.00514447,0.000463572,0.0157548,0.0112268,9.66136e-05
33504955,-0.123789,-0.000378156,0.000355564,-0.992308,-0.0115576,0.0077953,-0.00123204,-0.0460872,-0.140494,-0.0236307
33512992,-0.123791,-0.000973729,-0.000165677,-0.992308,-0.000546504,-0.00259145,0.00043061,0.0576276,0.0397584,0.0229668
33521033,-0.123792,-0.000855672,0.000575824,-0.992308,0.0122132,0.00238617,0.000547667,0.0160713,-0.0283562,0.00156545
33528948,-0.123795,-0.000975209,-0.000165199,-0.992307,-0.0119693,-0.00745799,0.000362911,0.0273657,0.131024,-0.00189164
33536866,-0.123796,-0.000684723,0.000540834,-0.992307,0.0087402,0.00391162,0.000512025,-0.0165855,-0.124919,0.00147684
33545002,-0.12379,-0.000360406,0.00127343,-0.992307,-0.00292786,0.00821154,-0.00119141,0.0139396,-0.0118957,-0.0243223
33552881,-0.123793,-0.000679305,0.000552672,-0.992308,-0.00178579,-0.00480793,0.000453956,0.0684334,0.152574,0.0234937
33560961,-0.123795,-0.000198332,0.0011537,-0.992307,0.00796403,0.00139872,0.000568277,0.00931026,-0.0184324,0.00141632
33569101,-0.123796,-0.000332787,0.000425177,-0.992307,-0.0144259,-0.00748524,0.000365677,0.0267975,0.0941332,-0.00205323
33577139,-0.123798,-0.000113107,0.00115876,-0.992307,0.00828139,0.00404625,0.00051804,-0.00913567,-0.148973,0.00146878
33643350,-0.123793,-0.000188234,0.00197203,-0.992306,-0.00226744,0.00826228,-0.00118946,0.0175261,-0.009496,-0.0243062
33651157,-0.123796,-0.000500284,0.00124564,-0.992307,-0.00107992,-0.00468687,0.000459624,0.0725795,0.17153,0.0233126
33659194,-0.12379,5.8713e-05,0.00183695,-0.992307,-0.0101405,0.00756591,-0.00124515,-0.0325309,-0.0628924,-0.023912
33667253,-0.123793,-0.000383855,0.00117998,-0.992307,-0.000829034,-0.00269476,0.000424117,0.0660527,0.089035,0.0233509
33675116,-0.123795,-0.000644205,0.0018979,-0.992306,0.0112544,0.00231947,0.000529818,0.0156153,-0.00227306,0.00117742
33683175,-0.12379,-0.000391608,0.00117186,-0.992308,-0.005764,0.00655,-0.00115063,0.00404156,0.0205093,-0.0239395
33691157,-0.123793,-0.00068882,0.00045332,-0.992308,-0.00467257,-0.00499851,0.000461204,0.0542357,0.120157,0.0229431
33699208,-0.123787,-0.000270768,0.00116885,-0.992308,-0.0114315,0.00762552,-0.00121066,-0.0430561,-0.123554,-0.023486
33707344,-0.12379,-0.000816055,0.000592309,-0.992308,-0.000560986,-0.00249759,0.000423527,0.0589434,0.0509395,0.0229773
33715136,-0.123785,-0.000499187,0.00132573,-0.992308,-0.00221205,0.00815262,-0.00116208,-0.0381646,-0.166376,-0.0442243
33722998,-0.123787,-0.00072738,0.000611788,-0.992308,-0.0116095,-0.00722894,0.000361456,0.0474303,0.13524,0.0144197
33731047,-0.123788,-0.000437445,0.00131774,-0.992308,0.00850278,0.00379528,0.000494585,-0.0113878,-0.106707,0.00179612
33739067,-0.123782,-4.32181e-05,0.00201112,-0.992307,-0.00286543,0.00797951,-0.00117236,0.0199793,0.00296028,-0.0234296
33808239,-0.123785,-0.000367022,0.00129276,-0.992308,-0.00172863,-0.00459852,0.000447611,0.0725937,0.162137,0.0221382
33816102,-0.123786,0.000203861,0.00181348,-0.992307,0.00772094,0.0013907,0.000555223,0.017342,-0.00493764,0.00135821
33824095,-0.123788,2.65994e-05,0.00109435,-0.992308,-0.0139956,-0.00724696,0.000357682,0.0335417,0.103842,-0.00217843
33832134,-0.12379,0.000222399,0.0018363,-0.992307,0.00801202,0.00388298,0.00050154,-0.00175632,-0.131388,0.0016242
33840103,-0.123786,-0.000418312,0.00236696,-0.992306,-0.00224169,0.00803202,-0.0011558,0.0136894,-0.00239232,-0.0235856
33848064,-0.123789,-0.000710357,0.00163142,-0.992307,-0.00104197,-0.00448215,0.00044907,0.0672878,0.172212,0.0223675
33856112,-0.123783,-0.000108921,0.00217409,-0.992307,-0.00980322,0.00735822,-0.00120609,-0.0332695,-0.0549855,-0.0226345
33864043,-0.123786,-0.00052583,0.00149984,-0.992308,-0.000803318,-0.00258432,0.000412657,0.0624298,0.0910789,0.0222634
33872037,-0.123788,-0.000849415,0.00219577,-0.992306,0.0108582,0.00223445,0.000506159,0.012389,0.00279082,0.0011135
33880037,-0.12379,-0.000946321,0.00144871,-0.992307,-0.0118212,-0.00703643,0.000369001,0.0235633,0.142819,-0.00203243
33887981,-0.123791,-0.000606176,0.00213373,-0.992306,0.00810116,0.00379488,0.000470039,-0.0163775,-0.0990492,0.00166716
33896035,-0.123785,0.000102193,0.00183812,-0.992307,-0.00272701,0.00783984,-0.00113975,0.023655,-0.00625111,-0.0225871
33904037,-0.123781,-0.000394172,0.00123273,-0.992309,-0.0127785,0.0136099,-0.00116496,0.0560579,0.0747657,0.00238198
33912051,-0.123779,0.00103515,0.000746129,-0.992309,-0.0193776,-0.194076,-0.000431145,-0.141015,0.0862071,-3.59545
33978532,-0.123781,0.000216719,0.00106735,-0.992309,-0.0107428,0.0176204,5.93863e-05,0.563343,-0.125821,3.61712
33986360,-0.123781,-0.000127797,0.00170023,-0.992308,0.000562215,-0.0307489,0.000155426,0.0728913,-0.0620872,-0.000667655
33994455,-0.123781,0.000682587,0.00142189,-0.992308,0.0042341,-0.0133038,8.82454e-05,-0.288072,0.0570612,-0.00213538
34002497,-0.123779,0.00129415,0.000905578,-0.992309,0.00272749,0.00185119,3.56149e-05,-0.148433,0.0991635,-0.00124932
34010529,-0.123779,0.00114754,0.000115579,-0.992309,0.000343568,0.00495815,1.89538e-05,0.0194263,0.06593,-0.0010997
34018494,-0.123779,0.000358899,-8.69883e-05,-0.99231,-0.000904015,0.00384436,1.20956e-05,0.0785544,0.0205178,-0.000898219
34026592,-0.123779,-0.000435475,7.00138e-05,-0.99231,-0.000933216,0.00227123,8.94778e-06,0.0749489,-0.00843035,-0.00047417
34034548,-0.123778,-0.00115336,0.000433516,-0.992309,-0.000366865,0.00105767,6.89475e-06,0.0469799,-0.015283,-0.00036846
34042568,-0.123778,-0.00166902,0.0010468,-0.992308,0.000222022,0.000460476,4.1284e-06,0.0161737,-0.00368067,6.0128e-05
34050575,-0.123778,-0.000978531,0.000641719,-0.992309,0.000550429,0.000417649,3.79574e-06,0.0150844,-0.00373494,-0.000327929
34058655,-0.123778,-0.000362865,0.000132891,-0.99231,0.000541154,0.000743244,4.9241e-06,0.0200333,-0.00643558,-0.000350582
34129993,-0.123778,-0.00113381,-9.82153e-05,-0.992309,0.000390676,0.00113126,4.86604e-06,0.00423788,-0.0103794,0.000168808
34137780,-0.123778,-0.000379578,0.000152207,-0.99231,0.000240128,0.00142096,4.78732e-06,0.0198026,-0.00339118,-0.00026277
34145737,-0.123778,-0.00118308,7.19946e-05,-0.992309,0.000148894,0.00155921,5.26514e-06,0.00607663,-0.00716875,-7.99211e-05
34153824,-0.123778,-0.000392641,0.000157778,-0.99231,0.000102032,0.00158036,5.17738e-06,0.0221376,-0.00345722,-8.95575e-05
34161742,-0.123778,-0.00118673,9.70663e-06,-0.992309,0.00010111,0.0016536,5.73691e-06,0.00714171,-0.00784405,-3.54252e-05
